time,seconds_elapsed,z,y,x
1638063119303574000,0.019573974609375,-0.05013327343463898,-0.04857026190161705,0.059852995677292346
1638063119323719000,0.039718994140625,-0.17488427321910857,-0.08524988726228475,0.21494975989209486
1638063119343864800,0.05986474609375,-0.08939034806787967,-0.037515491662919516,0.1501999503502622
1638063119364011000,0.080010986328125,-0.5484428605675697,-0.09985679702460765,0.2659465000219643
1638063119384156000,0.100156005859375,-0.1359101071804762,-0.003909282398223877,0.3031742973173037
1638063119404302000,0.120302001953125,-0.28852877257764337,0.19616700748354196,0.11633702637813985
1638063119424448300,0.1404482421875,-0.9483961183667182,0.41888416824042796,-0.0538923337072134
1638063119444593200,0.16059326171875,-0.8871849860787391,0.06813304050564765,-0.19222528412044046
1638063119464739000,0.180739013671875,-0.439574489569664,-0.053204351443052286,-0.05181523517221212
1638063119484885200,0.20088525390625,-0.097675945854187,0.0824567494124174,0.36964112164378166
1638063119505031200,0.22103125,-0.746159143319726,0.43005145894289015,-0.07695449873432517
1638063119525176000,0.241176025390625,-0.01633154159784317,0.8736147258877753,-0.12137611652389169
1638063119545322200,0.261322265625,0.37276363757848735,0.8364929097175597,-0.5312362897008657
1638063119565468200,0.28146826171875,0.5365338115870952,1.0739929213255643,-0.8264724509626626
1638063119585613300,0.30161328125,0.8037211054503918,1.2757692931234836,-0.6554790477022528
1638063119605759200,0.32175927734375,0.6510790591776371,1.1812369059920311,-0.6417272934645414
1638063119625905200,0.3419052734375,0.040992520123720164,0.8391641747534274,-0.6912684462249279
1638063119646051000,0.362051025390625,0.5292921698957681,0.36805180662572384,-0.33022249977327883
1638063119666196200,0.3821962890625,0.8156967899262905,-2.8331612326979636,2.7597303780451417
1638063119686342100,0.402342041015625,1.7083745282024143,-2.366989243581891,1.5994705013692379
1638063119706488000,0.422488037109375,0.5293488685190677,0.3552279808878898,0.047476621446013445
1638063119726633000,0.442633056640625,-0.9853127673536538,-0.4753139114707708,-0.7137374676644802
1638063119746779100,0.462779052734375,-0.8156143723398447,-0.14935820229649543,-0.016338555860519407
1638063119766925000,0.482925048828125,-0.1387882929652929,0.11006956348121165,0.832691763868928
1638063119787071200,0.5030712890625,-0.15525252103209494,-0.26121114206314083,0.5286687773004174
1638063119807216000,0.523216064453125,-0.6697253074586391,-0.3309977949947119,0.2504781511247158
1638063119827362000,0.543362060546875,-0.5190723891764879,-0.5449485887110233,0.4827765024363994
1638063119847508200,0.56350830078125,1.0964993521660567,0.15652502518594263,0.3719272598195821
1638063119867653000,0.583653076171875,0.04616787693500519,-0.5706850875139237,0.11299611845239996
1638063119887799300,0.60379931640625,-0.0026408698976039886,0.025003508353233336,-0.037219139064848424
1638063119907945200,0.6239453125,-0.11982055764496326,0.0101432083517313,-0.0651278673402965
1638063119928090000,0.644090087890625,0.05456511840224266,0.0011672902137041092,-0.09195815272927284
1638063119948236300,0.664236328125,0.2667857273250818,-0.0874286926060915,0.09854659120887517
1638063119968382200,0.68438232421875,0.06933131037950516,-0.1791302402257919,0.2423696634709835
1638063119988528000,0.704528076171875,0.12292378435730933,-0.2841144632667303,0.6263960149504244
1638063120008673300,0.72467333984375,-0.6734317607611418,-0.23366145635843275,0.8558873460173606
1638063120028819200,0.744819091796875,-0.6014391222178935,0.03167407215833664,0.8906137914836406
1638063120048965000,0.764965087890625,-0.3436041785895824,0.145237322974205,0.6828278040073812
1638063120069110300,0.7851103515625,-0.20609540404081345,0.25487726286649703,0.8617974468439817
1638063120089256000,0.805255859375,-0.37837329415380955,0.2444868017554283,0.7385910461530089
1638063120109402000,0.825402099609375,-0.30367899543642995,0.024976035824418066,0.47538230053186414
1638063120129548000,0.845548095703125,0.32279461479485033,0.15355273137688635,0.2705523863822222
1638063120149693200,0.865693115234375,1.00128424346745,0.4228694384843111,0.08970365180075168
1638063120169839000,0.885839111328125,0.5571329475015402,0.1717453906714916,-0.2491705756574869
1638063120189985000,0.905985107421875,-0.23561025233864782,0.31722119857668873,0.029897125613689422
1638063120210130200,0.926130126953125,-1.1979682605624198,0.6407271765112876,0.3688657533571124
1638063120230276000,0.946276123046875,-0.9744009127169847,0.671609221509099,0.6585346358805895
1638063120250422300,0.96642236328125,-0.852954799696803,0.3442582585841417,0.49894993086308237
1638063120270568200,0.986568115234375,-0.7463257320582867,0.2685018835932016,0.2999813099622726
1638063120290713000,1.006713134765625,-0.4966711722761392,0.16909399937987327,0.46547523902356625
1638063120310859300,1.026859375,-1.0238950114652514,0.5327291586071252,0.2217775418192148
1638063120331005200,1.047005126953125,-0.6540268030673265,0.3608493279010057,0.3370785762131214
1638063120351150000,1.067150146484375,-0.5908084226101636,-0.05044716168940067,-0.005990764847397804
1638063120371296300,1.087296142578125,-0.9419462115749716,0.28354046277105804,-0.8617845873624086
1638063120391442000,1.10744189453125,-0.9667100659534335,0.49555415094494815,-0.8642115222483873
1638063120411586800,1.1275869140625,-0.33494214870631694,-0.3613724749922752,-0.23608605315685272
1638063120431733000,1.14773291015625,0.0739120622985065,-1.012112511473894,0.7892755237296223
1638063120451879000,1.16787890625,-0.30583938834071156,-0.13860650665760038,1.8492557017937301
1638063120472024800,1.18802490234375,-1.5982926897615193,1.0159978284746407,1.7090420522004366
1638063120492170000,1.208169921875,-3.2790754466831684,1.9766332506895063,0.668904930986464
1638063120512315600,1.228315673828125,-3.3285832816958427,2.1443337498843666,-0.07203121698796748
1638063120532461800,1.2484619140625,-1.4260042782545088,1.596153924167156,0.1899982557207346
1638063120552606700,1.268606689453125,-1.266979691337794,2.2202643123984336,0.876878257728368
1638063120572752600,1.288752685546875,-1.3550702088534832,2.4124808286905286,0.7942622261010109
1638063120592898800,1.30889892578125,-0.2774731255561113,1.2503396683126686,0.791621356203407
1638063120613044700,1.329044677734375,1.579277608168125,-0.5977262391746044,1.2656290073812007
1638063120633190000,1.34918994140625,2.399234685887396,-1.4836469044059515,1.5846793210811911
1638063120653335800,1.369335693359375,0.7490911051183938,-0.5995055238068103,0.923330942954123
1638063120673481700,1.389481689453125,-0.4791454524576664,0.39503333705365656,0.26144392790570853
1638063120693627000,1.409626953125,-1.0869219610035419,0.07462240252494812,0.031363691034913065
1638063120713772800,1.429772705078125,0.37471184903681276,-1.0833277359038591,-1.2517860677286983
1638063120733919000,1.4499189453125,-0.39357670850455756,-1.4035282425522804,-1.9494322322919964
1638063120754065000,1.47006494140625,-0.5983896715193987,-1.1536147395730019,-2.0183724975273014
1638063120774209800,1.490209716796875,-0.7817185324788093,-1.5079554162323474,-2.9799162667587398
1638063120794356000,1.51035595703125,0.7829489510565996,-1.9884885236561298,-1.594800171470642
1638063120814502000,1.530501953125,0.093323011341691,-1.8467244297504424,-0.45256899569928644
1638063120834646800,1.550646728515625,-0.28753800797462464,-0.9994321858599782,-0.70528937279284
1638063120854793000,1.57079296875,-0.012670096480846405,-0.6022206279844046,-0.9082990857779979
1638063120874938600,1.590938720703125,1.3543833956331013,-1.150169567555189,-1.5573030922472475
1638063120895084800,1.611084716796875,1.1409785453617571,-1.66603789999336,-0.943586672258377
1638063120915229700,1.631229736328125,0.22727789280116556,-0.25733956132680175,-0.40368718363046646
1638063120935376000,1.6513759765625,0.22736147943139076,0.1449415548980236,-0.3522901738703251
1638063120955521800,1.671521728515625,-0.2417202596515417,0.5275833201512694,0.23999241294562815
1638063120975666700,1.691666748046875,-0.439380428302288,0.6171262284323573,0.13015432013273237
1638063120995812900,1.711812744140625,-0.26647943785488604,0.20704174498021602,0.8227648286163807
1638063121015958800,1.731958740234375,-0.886545519131422,0.5368374707087874,-0.3057213149189949
1638063121036105000,1.75210498046875,-1.4783581503480672,-0.3472422428309917,-1.4965186609387398
1638063121056249900,1.772249755859375,-0.7279957101196051,0.15338731168210507,-1.509000541371107
1638063121076395800,1.792395751953125,0.2054004075139761,0.6971347079098225,-1.1990882045030593
1638063121096542000,1.8125419921875,-0.9262900850206613,-0.2841159245714545,0.46862522748708724
1638063121116686800,1.832686767578125,-1.166353809636831,-1.0507912016972898,-0.20234160446524618
1638063121136832800,1.852832763671875,-2.3355969109743833,-1.3226850658163427,-1.8019179042965172
1638063121156979000,1.87297900390625,-2.392449848052859,-0.9286281725794077,-2.6579998961031435
1638063121177123800,1.893123779296875,-2.9299533814549443,-0.6416236869595945,-0.9774100314050912
1638063121197270000,1.91327001953125,-2.91008080624938,-1.6948641815051435,-1.6756372107267379
1638063121217416000,1.933416015625,-0.01195522620975971,-1.975016024751216,-0.8197977955043315
1638063121237561600,1.9535615234375,-2.840368972119689,-0.29814591122865675,-1.317395434975624
1638063121257707000,1.97370703125,-4.2981046056777235,0.873995834159851,-3.5631396410673855
1638063121277852700,1.993852783203125,-5.021927998548746,-0.6689315267324447,-3.01015679898262
1638063121297998800,2.013998779296875,-2.3818799387216565,-2.034846954727173,-1.4780436775714159
1638063121318144800,2.034144775390625,0.2691384279310703,-2.2989263457030056,-0.6048597443163395
1638063121338289700,2.05428955078125,2.087133606803417,-2.1310054817557336,-0.3250660668581724
1638063121358435800,2.074435791015625,3.192843270385265,-1.7516309016048908,-0.2267185053527355
1638063121378581800,2.094581787109375,4.200940116477012,-0.9405997654020786,1.3429840497404335
1638063121398727200,2.11472705078125,5.425369682985544,-0.5773433763593435,2.512785954004526
1638063121418873300,2.134873291015625,5.295708699327707,-0.3711936117827892,2.96838043500483
1638063121439019300,2.155019287109375,3.7629338991373773,0.16082593725025654,2.963918194898963
1638063121459165400,2.17516552734375,3.1077114565446973,0.6448270130455493,3.956118968200683
1638063121479310300,2.195310302734375,3.5729695456862447,2.1690444127708672,4.283794925296307
1638063121499456300,2.215456298828125,2.9654049263253808,2.9755525185912846,3.615240999704599
1638063121519602200,2.235602294921875,2.3936732523679733,2.309862165737152,3.3475878418952223
1638063121539747300,2.255747314453125,1.366152159360051,1.8820377351939677,3.5586095964223143
1638063121559893200,2.275893310546875,0.3316042364552617,1.0702414598375558,3.71447586543858
1638063121580039200,2.2960390625,-1.310471627061814,0.8816063091635703,3.72973247128129
1638063121600185300,2.316185302734375,-2.299168337765336,1.5860218217313289,4.449387638556957
1638063121620330200,2.336330322265625,-2.477798811775446,2.419544775727391,3.611338147047162
1638063121640476200,2.35647607421875,-2.75718741556406,1.3807751434743403,3.5417385411202904
1638063121660622300,2.376622314453125,-3.0635610569119454,-0.18566461043059826,3.092573216384649
1638063121680767200,2.396767333984375,-1.5140383894078433,-0.5453852265626192,2.9640199017077684
1638063121700913200,2.4169130859375,-0.8256494441419839,-0.5017372234940528,2.1824369783073663
1638063121721059300,2.437059326171875,0.11942366728186607,-0.4873135613441467,2.2291081285893917
1638063121741205200,2.457205322265625,1.0837743106275797,-0.2066980461090803,2.0478841309547424
1638063121761350400,2.477350341796875,0.8167043595336377,0.2511860071331262,1.2330202847212552
1638063121781496300,2.497496337890625,-0.11793657052926719,0.2705249138534069,0.45859892351329323
1638063121801642200,2.517642333984375,-0.8027356015443802,0.1676940694540739,-0.3465723807454109
1638063121821788400,2.537788330078125,-1.1989566140126435,-0.07509528073370456,-0.5439917263776064
1638063121841933300,2.557933349609375,-0.6231026724934577,0.05243161350488663,-0.5712988354980946
1638063121862079500,2.57807958984375,0.0013128361642360687,-0.29509587600827214,-0.3659405135601759
1638063121882225200,2.59822509765625,0.21757015325725076,-0.9599275662064551,0.135582190400362
1638063121902371000,2.61837109375,0.1257137438694015,-1.3982441646695136,0.616386515980959
1638063121922516200,2.63851611328125,-0.18861582491900772,-0.8782184202909469,0.7916758628696203
1638063121942662100,2.658662109375,-0.30897421576771883,-0.5695195508658886,0.5228495696276426
1638063121962808300,2.678808349609375,-0.3327081425765529,-0.61968555752635,0.17429332158863545
1638063121982954200,2.698954345703125,-0.21240652341637759,-1.3445283565729855,0.06205167476534843
1638063122003099100,2.71909912109375,-0.13739358720388262,-1.6496470294237136,-0.24807927328944204
1638063122023245300,2.739245361328125,-0.1948298771282658,-1.1384902356773614,-0.660683922868967
1638063122043391200,2.75939111328125,-0.31435590880606323,-0.9472586387693881,-0.6919763022333383
1638063122063537400,2.779537353515625,-0.026322226268984377,-0.8569774793416262,-0.6093260760754347
1638063122083682300,2.799682373046875,0.09824293208718299,-1.1189689581274986,-0.8044891672134399
1638063122103828200,2.819828125,0.23289456363916397,-1.8342068934828042,-1.2980401616424322
1638063122123974400,2.839974365234375,0.30485505347847935,-2.544202252009511,-1.4940660070896148
1638063122144119300,2.860119384765625,0.8342232112199067,-2.5380349615514275,-1.5794348445564508
1638063122164265500,2.880265380859375,1.4632920986413955,-1.3562515275925398,-1.2543594253480435
1638063122184411400,2.900411376953125,2.158274596953392,-0.6045084466606379,-1.2751076143443583
1638063122204557000,2.92055712890625,1.8911270505785942,-0.3513789042443037,-1.6765519874840973
1638063122224702500,2.940702392578125,1.252555006274581,-0.7689718636304139,-1.9185311903327702
1638063122244848000,2.96084814453125,0.7055348719865083,-1.111354975992441,-1.750300529783964
1638063122264994300,2.980994384765625,0.6886871975600719,-1.0340332513809203,-0.8783043450087309
1638063122285140200,3.00114013671875,0.877213042640686,-0.5061959564685822,0.2877005050599575
1638063122305285000,3.02128515625,0.9946820687234401,0.0331090733975172,0.9002771073639392
1638063122325431300,3.041431396484375,1.1546405754894018,0.00046703298985958095,1.197723930412531
1638063122345577200,3.0615771484375,1.2902215968459845,-0.04450023598372936,1.3811959992349148
1638063122365723400,3.081723388671875,1.2289449981063603,0.07484042918980122,1.7096306657433509
1638063122385868300,3.101868408203125,1.0031097053289413,0.2482078681051731,1.4570575881659984
1638063122406014000,3.122013916015625,0.4694529104828834,0.5524380676835775,0.9972159711152314
1638063122426160000,3.14216015625,-0.0349415677879937,0.6697504418998956,0.6463619675278663
1638063122446306000,3.16230615234375,-0.295368226676248,0.6864408799380064,0.5532248341470957
1638063122466451200,3.182451171875,-0.22745376082472502,0.29926000995039936,0.6547340745538472
1638063122486597000,3.20259716796875,0.11024426246099174,-0.16787760932743548,1.0774439385622738
1638063122506743000,3.222742919921875,0.7960684718053788,-0.5924298863321542,1.0328145232409238
1638063122526889000,3.242888916015625,0.7999205441236495,-0.47792964692711826,0.6558101793527603
1638063122547034000,3.2630341796875,0.5451673460282385,-1.775481732791662,1.0453355666399002
1638063122567180000,3.283179931640625,0.4311714028835296,-2.160171370485425,0.4921463883280754
1638063122587326000,3.303325927734375,-0.17703414472937584,-2.7414813123881814,0.22923896374106406
1638063122607472000,3.32347216796875,0.1913438251107931,-3.360322820305824,0.1291524496138096
1638063122627617000,3.343616943359375,0.5085808057785034,-4.252942690914869,0.282686476290226
1638063122647763000,3.363762939453125,-2.0535379189327356,-3.03318988404572,-0.3094447193562984
1638063122667909000,3.3839091796875,-2.023272544528544,-3.0133208159714937,-0.7830763768285512
1638063122688055000,3.404054931640625,-3.7609941632464525,-2.5211235742390152,-0.3315951763659715
1638063122708201200,3.424201171875,-3.0187668064177036,-2.6206547925710675,-0.07454407659173011
1638063122728346000,3.44434619140625,-1.3276245680451393,-1.817207827886939,-0.11668810483813286
1638063122748492000,3.464491943359375,-1.4911173864170908,-1.2900538390636442,-0.5188958635658025
1638063122768638200,3.48463818359375,-1.8332830566361547,-2.7396161030381916,-0.41595103739798067
1638063122788784000,3.5047841796875,-0.6496928655162453,-2.499811321619153,-1.3335603878349065
1638063122808929000,3.524928955078125,-1.2816118816718458,-0.8671323781311512,-1.6329969233959913
1638063122829075200,3.5450751953125,-1.024210653285682,-0.11513678374290466,-1.2517466125011443
1638063122849220900,3.565220947265625,-0.010217442631721496,0.3074707889348268,-1.3600491663098335
1638063122869367000,3.585366943359375,-0.7044128822192549,1.1387392420023679,-1.2301415144145489
1638063122889512000,3.605511962890625,-0.7519231136739254,1.5850895093172788,-1.1712912660390138
1638063122909657900,3.625657958984375,-3.125433575718105,1.8371113827526568,-0.6156786599725484
1638063122929804000,3.645803955078125,-1.9475576705917714,4.251210168033838,0.7247779171168803
1638063122949950000,3.665949951171875,-2.5832977063402534,1.4745359617114067,0.590496287921071
1638063122970095000,3.68609521484375,0.20831395687311888,-1.712452152904868,-0.017725041782855985
1638063122990241000,3.706240966796875,1.3290849959865212,-1.930109399923682,-0.26148645187318326
1638063123010387200,3.72638720703125,2.677373289614916,-2.5699206306338307,0.31031390340626236
1638063123030533000,3.746533203125,3.4637723811253904,-1.753008619698882,-0.4507493790566921
1638063123050678000,3.766677978515625,0.7076990642830729,-0.14448095164895056,1.0203601153373718
1638063123070824200,3.78682421875,-1.8631068247526883,0.3416343398213386,0.04843348377943039
1638063123090970000,3.80697021484375,-1.1796043363541364,-2.146052828761935,-1.2803197960346937
1638063123111116300,3.8271162109375,-0.34120033231824637,-3.0680887634694574,-0.6004372516989708
1638063123131261200,3.84726123046875,0.3409299909442663,-2.06642633433938,-1.2420897263616322
1638063123151407000,3.867406982421875,1.0145356469675897,-0.6161608905315399,-0.8586836987376213
1638063123171553000,3.887552978515625,1.3140706744670867,-0.00912146408855915,0.19134616319835185
1638063123191699000,3.907698974609375,1.1010054314136504,0.4546966553777456,1.21915425645411
1638063123211843800,3.92784375,0.8762871599674225,0.41234862899184227,1.6418611978530884
1638063123231990000,3.947989990234375,0.5270335773140191,0.5913192947417497,1.459939865604043
1638063123252136000,3.968135986328125,-1.0456506239384413,1.957813983929157,0.7273287706434727
1638063123272281000,3.988281005859375,-2.4957424647450446,1.6781015550136564,-0.5818646531760693
1638063123292427000,4.008427001953125,-0.22107377746403217,2.055042770537734,-0.24555355420410632
1638063123312573000,4.028572998046875,-1.1794769105821847,3.3665842187881467,-0.8036521318674087
1638063123332719000,4.048718994140625,-3.918893691655993,2.850103891931474,-0.7104384261190891
1638063123352864000,4.068864013671875,-1.1765478713929653,0.9034005000814795,-0.5920955398112535
1638063123373010200,4.08901025390625,-1.3916174400061367,1.6037790122181177,-0.1497726283162832
1638063123393156000,4.109156005859375,-1.8255284969866274,1.1141010598301886,-0.48620530784130095
1638063123413301800,4.1293017578125,-1.766371374619007,0.6906672654613852,-1.4019254835307597
1638063123433447000,4.149447021484375,-2.9095775329023597,-0.5478142072752118,-2.4674387458026406
1638063123453592800,4.1695927734375,-1.5000556028932333,-0.7222001755833626,-1.4827192681670187
1638063123473739000,4.189739013671875,-1.2440320926010608,2.183817034488916,-0.40953824774622916
1638063123493885000,4.209885009765625,0.565747631111741,2.088355257552862,0.18086042501926422
1638063123514030800,4.23003076171875,0.023038930281996727,0.5412777912437915,-0.7980974203497171
1638063123534176000,4.250176025390625,-0.456449052003026,-0.8414262744665145,-0.91935473279953
1638063123554321700,4.27032177734375,-0.43768823743164537,-1.1184773752182722,-0.013674889609217642
1638063123574467800,4.2904677734375,0.298210793158412,0.23558336433172225,1.1674047799944878
1638063123594613800,4.31061376953125,2.128061244997382,-0.9447446101218462,1.5357903486192226
1638063123614758700,4.330758544921875,1.5463246021151542,-1.7782959134295582,-0.622824440073967
1638063123634904800,4.35090478515625,0.40322131968438624,-1.2970757005244493,-0.07314063953459263
1638063123655050800,4.37105078125,-1.2491934208869933,0.35329379795491694,0.2907791818529367
1638063123675197000,4.391197021484375,-0.24839374606609343,0.7229068625479936,0.3796072198629379
1638063123695341800,4.411341796875,-0.34870004042387004,0.3139987293988466,0.5139391179412603
1638063123715487700,4.43148779296875,-1.1533674868136643,0.3880290112495422,-0.16615911497175692
1638063123735634000,4.451634033203125,-0.9966706121921539,1.1093512349545955,-0.7667500959277153
1638063123755779800,4.47177978515625,-0.39198213278949257,-0.56242988486588,0.07774316489398479
1638063123775925000,4.491925048828125,2.5733883067443966,-3.6258021412074566,2.3848078088670968
1638063123796071000,4.51207080078125,0.0839534177109599,-1.8666145406126975,0.814636467218399
1638063123816216800,4.532216796875,-0.5410732085824013,-1.069687333086133,0.5826730469495057
1638063123836362800,4.55236279296875,-0.2109726546883583,-0.8720540524423122,0.839131441527605
1638063123856508700,4.5725087890625,0.740858698824048,-0.5847586210519075,1.0461708484202623
1638063123876653800,4.59265380859375,0.6868745951801538,-0.2698661576837301,-0.24537469050586222
1638063123896799700,4.6127998046875,1.3127373800367117,0.5737362917780876,-1.2416606872946023
1638063123916946000,4.63294580078125,-0.6542752248704433,0.6235960089683532,-0.9415478599071502
1638063123937091800,4.653091796875,-0.9202259626761078,0.8493389472872018,-0.15636720427572726
1638063123957236700,4.67323681640625,-0.41659167338907716,0.5131459217369556,-0.09891162512898445
1638063123977383000,4.6933828125,-0.19095862518548964,0.31746669777035713,0.020794950747489927
1638063123997528800,4.71352880859375,0.13869652302861213,-0.4763736496567726,0.11975099954009055
1638063124017675000,4.733675048828125,-0.07558218746781349,0.6235398948669433,0.010989011526107787
1638063124037820000,4.75381982421875,0.3758914142102003,0.33941081855297084,-0.6196405493408441
1638063124057965800,4.7739658203125,0.1483662686496973,0.7190162848502397,-0.4144721970170736
1638063124078112000,4.794112060546875,-0.823459825143218,0.5906815813601016,0.32468963476121426
1638063124098257700,4.814257568359375,-0.013974457077682018,-0.5600356832057237,-0.10625205101966857
1638063124118403800,4.83440380859375,-0.022161855186522007,-0.9463970535039902,0.0655126288741827
1638063124138548700,4.854548828125,-0.6188298174798488,-0.5191203199714421,-0.07347440153360367
1638063124158694700,4.874694580078125,0.1500505684748292,-0.16443419087529182,0.11288403638005257
1638063124178840800,4.8948408203125,0.8113564226344228,0.5571750330775976,-0.20404314768612383
1638063124198986800,4.91498681640625,0.4372355252280831,0.30288872184157367,-0.626757687869668
1638063124219131600,4.935131591796875,-0.32245997601300475,-0.02027414174377918,-0.057227615609765047
1638063124239277800,4.95527783203125,-1.5511413547471165,0.21319442239105701,-0.09239069892764092
1638063124259423700,4.975423828125,3.274711990776658,-0.9282850582301616,-3.1918279558628795
1638063124279570000,4.99556982421875,-0.8656748727992176,-0.711494072651863,0.5368056142657995
1638063124299715800,5.0157158203125,-0.8084437500581145,0.07000701768398285,-0.028193828827142713
1638063124319861000,5.035861083984375,-0.05632365250736475,0.46392684053778643,0.22916589850485322
1638063124340007000,5.0560068359375,0.12804770324230194,1.1586334445178508,-0.36435412115156646
1638063124360152800,5.07615283203125,0.45705783155113455,1.599195776081085,-0.5227653984755277
1638063124380298800,5.096298828125,-0.7473202960535883,0.588862549239397,0.09350538217127323
1638063124400444000,5.11644384765625,-0.359317588289082,0.13715396976172922,0.7455074014127254
1638063124420590000,5.136590087890625,-0.2653618320018053,0.9779875390321016,0.6132116853371262
1638063124440736000,5.156736083984375,-0.43969723916649817,0.5764718542218208,0.22562661846280097
1638063124460882200,5.176882080078125,-0.17101795317977667,-0.1474421395421028,-0.2981847819343209
1638063124481028000,5.197028076171875,0.1266878130659461,-0.34908290226161476,-0.5327350038260221
1638063124501173000,5.217173095703125,0.021932722605764864,-0.8746189344942569,-0.03390753029882908
1638063124521319200,5.237319091796875,-0.6649252137005329,-1.8738024062901735,0.6866007466748356
1638063124541465000,5.257465087890625,-0.544729100741446,-1.9000807568848133,1.6757891864180563
1638063124561611300,5.277611328125,0.07219049920290709,-1.419724759593606,0.8696183497279882
1638063124581756200,5.297756103515625,-1.8575781244590877,0.355956879684329,-1.1486898503914476
1638063124601902000,5.317902099609375,2.033124953240156,-1.0947124687492846,1.217947803273797
1638063124622048300,5.33804833984375,-2.06651021323055,-1.0876455991029739,-0.6076847386091947
1638063124642194000,5.35819384765625,-0.6505564966082572,-1.0886498077094555,2.2052792169734836
1638063124662340000,5.378340087890625,-0.43469694666117425,-2.813654568195343,-1.61401340598464
1638063124682485000,5.398485107421875,-0.8897063212499022,3.9176661956876515,0.14270049797296525
1638063124702631000,5.418630859375,-0.1500885623976588,1.1001455997139216,0.5841577325493097
1638063124722777000,5.438777099609375,-0.9856558817028999,-0.41113282346129415,-0.9936588631555437
1638063124742923000,5.458923095703125,-1.2386001306802035,1.2411135748058557,-0.5953197625547647
1638063124763069200,5.479069091796875,1.0385942756861448,0.5648690947115421,-0.5829723221570253
1638063124783214000,5.499214111328125,-0.005385200169682502,-0.31933366068601604,-0.4482534705877304
1638063124803360000,5.519360107421875,0.3553606673568487,-0.4892021515697241,0.13966273771226406
1638063124823506200,5.539506103515625,0.90915307225883,0.07052899573147296,-0.09557751227021216
1638063124843652000,5.559652099609375,-0.4126093257546425,0.2664355987131595,-0.12909107481539248
1638063124863798000,5.579798095703125,-0.27069793233275413,0.008802899658679962,-0.09943769482970237
1638063124883943200,5.599943115234375,-0.27216917392909523,-0.18665712859928607,0.26267127774357796
1638063124904089000,5.620089111328125,-0.6535039482370019,-0.7111626487404108,-0.11003566121160983
1638063124924235000,5.640235107421875,0.6883072583317756,-0.1109130285680294,-0.29236674330532547
1638063124944381000,5.660380859375,0.17639993847906588,-0.3233580938965082,-0.16256109047979114
1638063124964527000,5.680527099609375,0.022941022865474222,-0.12992577207386494,-0.06817571060359477
1638063124984672000,5.700672119140625,0.04099719629883766,0.057063949480652805,-0.3696940208747983
1638063125004818000,5.72081787109375,0.32170652729719873,-0.026831308302283287,-0.2703431275457144
1638063125024964000,5.740964111328125,0.21198680016696453,0.024465748214721677,-0.4751470304712653
1638063125045110000,5.761110107421875,0.3887520648270845,0.6071428868174552,-0.606693974006176
1638063125065256200,5.781256103515625,0.5772933997377753,0.7282575759261846,-0.1556181394740939
1638063125085401000,5.801401123046875,-0.013924772717058657,0.9794161105304956,0.5227136682882905
1638063125105547000,5.821547119140625,-1.0247980977848172,3.188784934905171,0.272451205740869
1638063125125693200,5.841693115234375,-0.9974155853405594,1.771800413930416,-0.3103457598492503
1638063125145838800,5.8618388671875,1.1410545332074165,2.1728058111310005,0.4168757510274648
1638063125165985000,5.881985107421875,-0.05432809477597475,-1.9474083252489565,0.043864276167750356
1638063125186131000,5.902130859375,2.151385714222491,-1.0654062947660683,0.051531742055714126
1638063125206276000,5.922276123046875,-1.1589131382420659,-0.8010814045965671,-0.5988184183254838
1638063125226422000,5.942422119140625,0.03970744874924421,-0.6854688200354576,-1.345115216550231
1638063125246568000,5.96256787109375,-0.9628422846093774,-0.2895955250263214,-0.7757812513843179
1638063125266714000,5.982714111328125,-2.160846201007068,7.4250406949132675,-2.731849560689926
1638063125286860000,6.002860107421875,1.7230857751220463,1.237983460086584,-0.025820669955015182
1638063125307005200,6.023005126953125,0.4296149672217667,1.0063146388500928,-0.4590098424017429
1638063125327151000,6.043151123046875,-0.2658801567874849,3.2600223711669445,-0.014806231726706027
1638063125347297000,6.063297119140625,-1.7297990090250968,7.055567915573715,0.8623084651060402
1638063125367443200,6.083443115234375,0.28236031307578086,-0.46432373090088364,-0.39003421359211204
1638063125387588900,6.1035888671875,3.9456899286448954,-3.5307553748130798,2.194561715865135
1638063125407734500,6.123734619140625,-4.543306277704239,-7.537216875284909,-4.452187206147611
1638063125427880400,6.14388037109375,-1.4270086329914629,-5.518128046181798,-0.4594168888326734
1638063125448026600,6.164026611328125,-2.7245079657554623,-2.8084336186766623,-0.6445235731195658
1638063125468172500,6.184172607421875,0.2885696891099214,-3.6031665310293435,-0.8217404540047049
1638063125488317400,6.2043173828125,0.9946633640229702,-0.2222837377756834,-0.3056106941513717
1638063125508463600,6.224463623046875,-0.7660403402231634,0.0038864860445261,0.341050840844959
1638063125528609500,6.244609619140625,-1.3169137889385223,0.5398404519170522,0.39562275431416927
1638063125548755700,6.264755615234375,0.35332580052837725,-0.07701426609754562,0.6075900460630655
1638063125568901600,6.284901611328125,0.9658249536819755,0.043835634595155715,0.09278532426841557
1638063125589047600,6.305047607421875,0.07360365393646061,0.7735135987132787,-0.6194977068040519
1638063125609192700,6.325192626953125,-0.4306190296977758,1.68046360796988,-0.13617248444370925
1638063125629338600,6.345338623046875,0.3892968392282724,4.939513334712386,0.6018153351191431
1638063125649484500,6.365484619140625,-1.3643255284547804,6.6221116166234015,-0.38702209922932085
1638063125669630500,6.38563037109375,-0.9712244015727192,1.124460541281104,-0.365925644784607
1638063125689776600,6.405776611328125,0.39965164450407026,-1.9781454088181256,0.3988065354494378
1638063125709922600,6.425922607421875,0.25647775686569513,-1.3620301109939812,0.7230456864967941
1638063125730067500,6.4460673828125,0.3479063327629119,-2.618255330213904,0.7471942585211246
1638063125750213600,6.466213623046875,-0.6835773072004317,2.8661639231115577,0.34429497386533764
1638063125770359600,6.486359619140625,-0.7282902360867709,1.5745114166796206,-0.10784617921016178
1638063125790505700,6.506505615234375,-0.3350632908679545,-2.4331010073930024,0.44207419743090864
1638063125810650600,6.526650634765625,-0.2971247514873743,-3.980776439595222,0.6399782578401267
1638063125830796500,6.546796630859375,0.6726268741190433,-6.611607758265733,0.4373925424207002
1638063125850942700,6.566942626953125,-1.4320377131998538,0.352993353703618,0.6124849054325372
1638063125871088400,6.58708837890625,-0.9972118794620036,0.3157014416635036,0.3129833418112248
1638063125891234600,6.607234619140625,-0.9188492674954235,2.016707486924529,0.34320231979042287
1638063125911380500,6.62738037109375,-0.051224429672211406,-1.4518302089065311,0.37697212211899456
1638063125931526700,6.647526611328125,0.4487060366608202,-1.2855693871259688,0.8616782774437218
1638063125951671600,6.667671630859375,-0.09706387837044894,-0.4147936840564012,0.6212626706499605
1638063125971817500,6.6878173828125,0.04247530602738261,0.6397708986997604,0.5011301244463772
1638063125991963600,6.707963623046875,-0.4533335503309965,0.1703641654461622,0.444340534927696
1638063126012109600,6.728109619140625,0.037384266498684884,0.00781564218699932,0.8547763160355388
1638063126032255700,6.748255859375,0.8110225145049392,0.4084387620717287,1.6601432889968155
1638063126052401700,6.768401611328125,-0.4766997398059815,-0.6947872680008411,1.7579807090230286
1638063126072547600,6.788547607421875,-0.30200550926625724,0.014864976176619528,-0.06835311299711465
1638063126092692700,6.808692626953125,-1.2698106769800186,-1.1184750371307135,-2.667113176885247
1638063126112838400,6.82883837890625,-1.9000357486993074,0.08969780658185482,-1.8964631509095429
1638063126132984600,6.848984619140625,-0.24336627329289912,-0.037054596152901645,-0.4414654178828001
1638063126153130500,6.869130615234375,0.6768588126003742,-1.7159984472095966,-0.37541707469671964
1638063126173276700,6.889276611328125,1.1023176830559969,-1.4473036713927983,-0.9792653038829564
1638063126193422600,6.909422607421875,-0.5280067331951112,-0.9942658891379833,-0.26817805846631526
1638063126213568800,6.92956884765625,-1.5736743813335894,-0.25176000762879847,0.5148812210969627
1638063126233714700,6.949714599609375,-1.578115578651428,1.1446353143036365,-0.22441212810650465
1638063126253859600,6.969859619140625,-1.1563140616595744,0.2834890248447656,-0.815536484798044
1638063126274005800,6.990005859375,-1.7049733414568007,0.1418921041995287,-0.8694804025620222
1638063126294151400,7.0101513671875,-1.1063608209669589,0.2883604302734136,-1.5348986604765056
1638063126314297600,7.030297607421875,0.2700362535536289,0.2691103708803654,-1.8730499804876743
1638063126334443500,7.050443603515625,1.2292355054855346,-0.33333354446589947,-1.342078917594254
1638063126354589400,7.07058935546875,0.6746262312427163,-0.3010591683268547,-0.044316988371312614
1638063126374735600,7.090735595703125,1.3032052893206476,0.7206500235319138,-0.5066771641142666
1638063126394881500,7.110881591796875,0.28533216849341986,1.5751432848423719,-0.8638404969789087
1638063126415027200,7.131027099609375,0.5876809382393956,0.45489831542968745,-0.5775768928542733
1638063126435173000,7.151173095703125,0.6458885047972202,0.45112055045664307,-0.02296396534964442
1638063126455319000,7.171319091796875,-0.19961539437174797,3.990172628971934,0.41550270910859105
1638063126475465000,7.19146484375,-0.9625634676679968,-0.9296072467446327,-0.6779862091951072
1638063126495611000,7.21161083984375,-1.6797721185743808,0.27667466865479945,1.8103643917329608
1638063126515757000,7.231757080078125,0.05377206832841038,0.4505541487455368,0.8567875827927142
1638063126535903000,7.251903076171875,-0.33416122746169563,1.4278531209915875,0.17800167458727956
1638063126556049200,7.272049072265625,-1.1004659177094698,1.284304481756687,0.8691752821356058
1638063126576194000,7.292194091796875,-1.4606623346596956,0.8280079899668693,1.52774279737249
1638063126596340000,7.312340087890625,-1.9840173695914447,0.17499767046570777,1.5694406892865895
1638063126616486100,7.332486083984375,-2.423967414475232,-0.7434393629670143,1.4061968772396445
1638063126636632000,7.352632080078125,-3.205222859486937,-1.379640001964569,1.735831859448552
1638063126656778000,7.372778076171875,-3.0215216580837962,-1.2428110263735055,1.806908406060189
1638063126676924000,7.392923828125,-1.914668523555249,-0.32000936799049373,1.5340245079904793
1638063126697070000,7.413070068359375,-1.428155172678083,-0.5061000948786736,1.4048869636848569
1638063126717216000,7.433216064453125,-0.8573556650042533,-0.04516425285041332,-0.25954218593761325
1638063126737361000,7.45336083984375,-1.5539198795497418,-0.020285247659683227,-0.5100802505560219
1638063126757507000,7.473507080078125,-0.7012941656768321,0.10050853893160819,-0.5624737240076064
1638063126777653000,7.493653076171875,-0.8282838842988014,-0.982009634155035,-0.5531687200456857
1638063126797799200,7.513799072265625,-2.089634775969386,-2.666760710185766,-1.0580091702520846
1638063126817945000,7.533945068359375,-0.8391231851559132,-1.5178455266058444,-1.0243002312652767
1638063126838091000,7.554091064453125,-0.5230196654975414,-0.9897019422233104,-0.29932269992306826
1638063126858237000,7.57423681640625,0.24149755681157112,0.23910803132653236,-2.4632088531479237
1638063126878382800,7.5943828125,0.4697399107307195,1.9855688368171451,-2.414410627709329
1638063126898529000,7.614529052734375,-1.0749088671267033,2.612777775585651,-2.9303821282610296
1638063126918674000,7.634673828125,-0.0926396687200293,0.6173427937924861,-4.1407761551544064
1638063126938820000,7.654820068359375,0.5233083827784285,1.4282687160551548,-1.4128078198119998
1638063126958966000,7.674966064453125,0.33743867822978646,0.06225041220784187,-0.10291413876861333
1638063126979112000,7.69511181640625,1.2289222017526626,-0.008660860839486122,0.6653533759847283
1638063126999258000,7.715258056640625,1.4458032037019728,0.2020885064870119,2.0426133509449658
1638063127019405000,7.735405029296875,0.48149873758554457,1.5638286946237085,3.7846407040327783
1638063127039551000,7.755551025390625,2.560554251873493,0.028100305324792862,1.9312441030420362
1638063127059697000,7.77569677734375,1.619871484363079,-1.0840466978281735,2.739745866897702
1638063127079842000,7.795842041015625,0.4460732770044356,-0.22235037327110765,0.6051677873522043
1638063127099988000,7.815988037109375,-1.2574854484140872,-0.7047673947453499,1.9894529847741125
1638063127120134100,7.836134033203125,-2.004851629436016,-1.0912164433270692,1.0935629333879797
1638063127140280000,7.856280029296875,-4.834273091083765,-4.7389019150406115,0.5887115233961493
1638063127160426200,7.87642626953125,4.525099589884281,5.584322227579355,0.2584293293248862
1638063127180572200,7.896572265625,-2.6041069778740407,1.2949357658863068,-1.7493500971913336
1638063127200717800,7.9167177734375,2.391591331527382,0.611224018651247,-0.614580562537536
1638063127220864000,7.936864013671875,-1.4993290421843528,0.19141104512810705,-0.38621173269450665
1638063127241010000,7.957010009765625,-1.7612823809169231,0.6388754111647605,-0.3959120926495641
1638063127261155000,7.977155029296875,-1.8171875157512722,0.6929448550045489,-0.8838614676792174
1638063127281301000,7.997301025390625,-1.5783213303565977,-0.05951134263277053,-0.5758695044144988
1638063127301447000,8.017447021484376,-0.8970879559338092,0.18563070816099642,-0.2452124856814742
1638063127321593000,8.037593017578125,-1.5580901509717107,0.864105723786354,0.3500338828435167
1638063127341739000,8.057739013671876,-2.6274375845789906,0.4092348808854818,0.33958350823875516
1638063127361885200,8.07788525390625,-2.058826380729675,0.07386252406835556,0.31102877367734905
1638063127382030800,8.09803076171875,0.3135942402511835,0.14293138411939144,0.7645660298869014
1638063127402176800,8.1181767578125,0.46907209447175263,-0.05792027404904365,0.4312190414175391
1638063127422322700,8.13832275390625,-0.10373159263134002,-0.453653283804655,1.3518939169049262
1638063127442468900,8.15846875,-1.144744327636063,-0.16415946558713912,1.1784472752735018
1638063127462613800,8.17861376953125,-2.306027409879863,-2.4218512991040946,1.4717276262924075
1638063127482759700,8.198759765625,-2.317560319024324,-4.49414272608459,1.8153695065438746
1638063127502905900,8.21890576171875,-1.8824103678986428,-4.065430406790972,2.176903894099593
1638063127523051800,8.2390517578125,-2.335114388154447,-2.8954192436903714,3.54577729511708
1638063127543198000,8.259197998046876,-3.3448256837055084,-4.300523357257247,3.17503259614557
1638063127563344000,8.27934375,-3.519072828064859,-2.5795465371131896,3.3754563842907546
1638063127583489800,8.29948974609375,-4.321473790827393,-1.6063813036710024,3.6195708456024525
1638063127603635700,8.3196357421875,-2.5812813980817793,-1.0719733981966972,3.3892315194040536
1638063127623782000,8.339781982421876,0.43342897255197166,0.09392214627861976,3.5680648225098848
1638063127643927800,8.359927734375,1.7500573686778544,-1.0081675732403994,1.4710343833312391
1638063127664072700,8.38007275390625,3.3695185186743735,-1.8683195909649133,-0.675090195492655
1638063127684219000,8.400218994140625,0.7775660889744758,-2.239001161572337,-1.0436343156799675
1638063127704364800,8.42036474609375,-0.4076011056711897,-3.1512849330723283,-0.6068188424948603
1638063127724511000,8.440510986328125,-0.31081535012237727,-3.0657208652943373,-0.9024647536013275
1638063127744657000,8.460656982421876,1.853058893468976,-3.5902883447557685,-1.37834207110852
1638063127764802800,8.480802734375,2.208024570158869,-2.1672090140372515,-1.2270533391408622
1638063127784948700,8.50094873046875,1.8620511782199143,-0.8920119678437709,0.2693941562578082
1638063127805094700,8.5210947265625,5.237222608089446,-1.2786352039486168,-0.8083664470382035
1638063127825240800,8.54124072265625,4.094255519258976,0.14774199927151202,-1.4337389641597866
1638063127845386800,8.56138671875,3.4423844329208135,3.0223206995069978,-1.7335060468494892
1638063127865532000,8.581531982421875,3.9685841897591945,2.8763901335716247,-1.446813111396879
1638063127885677800,8.601677734375,4.17814405504018,3.2947160834074016,-1.39444170364663
1638063127905823700,8.62182373046875,4.258562284362316,4.12412634138763,-1.8934391269132493
1638063127925970000,8.641969970703125,4.017551049762964,3.9233337199300524,-2.068304695431888
1638063127946115800,8.66211572265625,2.8695544423326846,6.329521001434326,-1.3433264334373176
1638063127966261800,8.68226171875,2.906324668586254,4.559506301876902,-2.199991047437489
1638063127986407700,8.70240771484375,2.1047607411697506,4.897240711650252,-1.849523558949679
1638063128006553900,8.722553955078125,0.38408378075510263,3.2748779949933287,-1.408013132881373
1638063128026699800,8.74269970703125,-1.3899462919235228,2.1151152541846034,-0.5609653652712703
1638063128046846000,8.762845947265625,-3.1177690324395892,0.2194564053952694,0.24572744946628808
1638063128066990800,8.782990966796875,-6.550676611962914,-5.443015229791403,0.039836920347809786
1638063128087136800,8.80313671875,-10.517466027259825,-8.196618357127905,0.8871396856322884
1638063128107283000,8.823282958984375,-3.416692650042474,-7.7674454345852135,3.6716175514429805
1638063128127428900,8.843428955078124,-2.7907869028270245,-0.024096914902329444,-0.7168044540196656
1638063128147574800,8.86357470703125,-0.020514380240440368,1.9612369441151618,-2.1272230406075714
1638063128167720700,8.883720703125,0.8122330593384802,-1.2833090409785508,-2.410807634781301
1638063128187867000,8.903866943359375,0.3104410369172692,-3.0057541801095007,-3.311374665002525
1638063128208012800,8.9240126953125,-1.510693170633167,-3.1239789929956197,-1.9140587210938333
1638063128228158700,8.94415869140625,-1.6977864986926317,-3.3825755686461925,0.003008826427161693
1638063128248305000,8.964304931640624,1.5724141521394253,-2.9485025991022584,0.4535170902043581
1638063128268450800,8.984450927734375,6.182310917082429,4.4409827983051535,-2.368833410143852
1638063128288596000,9.004595947265624,6.061057696285843,3.75755805131793,-4.510186098390817
1638063128308742000,9.024741943359375,3.863963831594586,2.4723276868879793,-2.9011057648941874
1638063128328887800,9.0448876953125,3.553362343418598,1.5953005222082137,1.1311460103943944
1638063128349033700,9.06503369140625,4.74509609350562,0.610317425200343,1.9368509831383822
1638063128369179600,9.0851796875,3.3263679437339304,-1.127179737111926,2.457423547744751
1638063128389325800,9.105325927734375,1.1134487334012984,0.6122177058637142,0.7961527160227299
1638063128409471500,9.125471435546874,0.7579144630432129,0.6818716723263263,0.1439168149601668
1638063128429617400,9.145617431640625,1.0526350759983063,-0.05820610525310039,0.6601236586377024
1638063128449763300,9.165763427734374,-0.48070733147952704,0.03709843529462814,0.14723109060730785
1638063128469909500,9.185909423828125,0.6209003401435911,1.0764718786597252,0.8316198237884789
1638063128490055400,9.206055419921874,-0.814958100388199,-0.44628480086326594,1.519506153294444
1638063128510200600,9.22620068359375,-0.5796563294768333,-0.6491659190326928,1.1685241394132375
1638063128530346500,9.246346435546876,-0.8617910171031952,1.2925772200614214,0.02915770542323589
1638063128550492200,9.2664921875,-1.994371298084408,0.7317389883011579,-0.8727759369760751
1638063128570638300,9.286638427734376,-1.8178117851294575,1.196619768562913,-1.6257582043141126
1638063128590784300,9.3067841796875,0.38591070392131804,1.0864140114814043,-1.2836246827989817
1638063128610930400,9.326930419921876,-1.1521207016229629,2.427114918720722,-0.33417905537933107
1638063128631076400,9.347076416015625,-3.200844206011295,1.1007622703075408,0.6418833608090877
1638063128651222500,9.367222412109374,-4.277464553231001,0.4332172294974327,1.4455918990388512
1638063128671368400,9.387368408203125,-5.566116708803176,-2.2772797465622423,2.1378294825568793
1638063128691514400,9.407514404296874,-3.992780473382771,-3.6638445793539285,0.512915948905982
1638063128711659500,9.427659423828125,-0.6585799363270401,-2.226895713236928,3.5517055161222815
1638063128731805400,9.447805419921876,0.3031049949407577,-2.9981670859813687,1.1800883204787969
1638063128751951400,9.467951416015625,-1.0908581314086914,-4.78743301397562,0.23010405613780022
1638063128772097300,9.48809716796875,-3.9826948404371736,-4.853806643593311,1.154714809769392
1638063128792243500,9.508243408203125,-3.903822963774204,-5.346921000170707,3.7758158848032353
1638063129014439700,9.730439697265625,-0.1740811401426792,5.809090183386206,-2.0907214021623135
1638063129034584800,9.750584716796874,-0.050831777092814445,1.6100900950610637,-0.7961454094991087
1638063129054729700,9.770729736328125,1.732004994636774,0.32264965336620804,-0.796603674660623
1638063129074875600,9.790875732421876,0.23041093012988567,-4.108839340406656,-0.13350246151685713
1638063129095020800,9.811020751953125,-0.46872342716455456,-9.880271701049804,1.0525891910299658
1638063129115166700,9.831166748046876,0.9212906692981719,-13.768549889689684,-0.00023176292926073072
1638063129135311600,9.8513115234375,5.528596833226084,1.0597422776550054,-4.4087779802709814
1638063129155456500,9.87145654296875,5.952472818404436,11.854061837267874,-4.988370596861839
1638063129175602700,9.891602783203124,4.124020542925596,5.975353927776217,-5.582448250401019
1638063129195747600,9.91174755859375,0.8541217976495623,2.986821516102552,-1.6538924119085072
1638063129215892500,9.931892578125,5.715564927470684,-3.54936772082448,3.755326346743107
1638063129236038700,9.95203857421875,3.5464851511254905,-6.427866224852204,3.664469725514948
1638063129256183600,9.97218359375,0.7741203324347734,-1.4190192416727543,1.1001610895439982
1638063129276328400,9.992328369140624,0.8018352917037904,2.9397090517938134,-0.13090659980475902
1638063129296474600,10.012474609375,2.845228102588653,3.5292671820819375,-0.9395639926135539
1638063129316619500,10.03261962890625,2.2320938664019105,2.8410733209967614,0.4715916760772466
1638063129336764700,10.0527646484375,0.5956921029984951,0.15162147105336188,1.6538874434724449
1638063129356910600,10.07291064453125,-1.3498983591735363,-1.411014798915386,1.2290760771401226
1638063129377055700,10.0930556640625,-2.615620890057087,-0.6181891814887523,0.565256194332987
1638063129397201000,10.113200927734376,-3.346490694308281,1.340129829353094,-0.3203675337783992
1638063129417346800,10.133346923828125,-3.1181472181022167,2.8910347449958325,-1.1868353835862129
1638063129437492000,10.153491943359375,-2.1480488248847425,3.3746547125190496,-0.5835735759858042
1638063129457636900,10.173636962890624,-0.4897416652739048,2.607871298843622,0.03433627710491419
1638063129477782800,10.19378271484375,-0.5121498964369297,1.2015806058406828,0.33022819886170324
1638063129497927700,10.213927734375,-3.330969300049543,-0.7349842538326978,-0.07448007144480943
1638063129518073900,10.234073974609375,-4.938263042390346,-1.5782044259786605,1.651611169103533
1638063129538218800,10.25421875,-3.6651571232572198,-2.5037176814079283,5.85410479863286
1638063129558363600,10.27436376953125,-2.0155001569613815,-3.3698750770270824,5.24877977489233
1638063129578509800,10.294509765625,-0.3140802702024579,-3.914297011515498,1.7572975490644573
1638063129598654700,10.31465478515625,-2.150229237663746,-5.628428495809436,-1.6170245704993604
1638063129618799600,10.334799560546875,-4.931364515048265,-7.1172244535416365,-2.1648640583463012
1638063129638945800,10.35494580078125,-5.290887562781572,-6.421869614785909,1.7654456380762158
1638063129659090700,10.375090576171875,-3.7397611133426425,-5.0083396181792015,3.2959400722444054
1638063129679235600,10.395235595703125,-3.911436069126427,-2.8866087452471256,3.547998770558834
1638063129699381800,10.4153818359375,-1.6923218035459517,-1.0565683237940073,3.550191896688938
1638063129719526700,10.435526611328125,1.0871921562470495,-0.005334931287169456,0.6581412526488304
1638063129739672600,10.455672607421874,3.1866321407854556,-1.1703414179682732,-4.1455227651596065
1638063129759817700,10.475817626953125,2.1875760947614906,-6.749105426898598,-6.644413464802503
1638063129779963000,10.495962890625,1.1553753195047378,-3.1855373312860724,-2.8437580300360916
1638063129800108500,10.516108642578125,1.988639768695086,-4.426953103908896,3.2643767669841646
1638063129820254000,10.53625390625,-0.7862624595187604,-6.0227639137268065,2.096441094983369
1638063129840398800,10.55639892578125,0.391026439499855,-3.5662896295309063,-0.6754729111999273
1638063129860544800,10.576544677734375,3.3723481891423464,-1.6878630705714224,-1.6462871976017952
1638063129880690000,10.59668994140625,4.183182925990224,0.03237959007918834,-1.353131057484448
1638063129900834800,10.616834716796875,3.8980443803727622,1.8139070327758788,-0.5543456548705696
1638063129920980700,10.636980712890624,4.220540889003873,3.151861271655559,-1.2803127817720175
1638063129941126000,10.6571259765625,4.318627169224619,4.570540906110406,-1.29331152568534
1638063129961271800,10.677271728515626,4.020700745965541,5.14540298704803,-0.7887173053249716
1638063129981416700,10.697416748046875,4.0061756692677735,5.291963667580485,-0.6953878642424941
1638063130001561900,10.717561767578125,4.756323005440831,5.6527206410229205,-1.1091793855190277
1638063130021707800,10.737707763671875,5.040428116357326,5.870772440317273,-1.2995118416301905
1638063130041852700,10.757852783203125,4.381745011916756,6.1637079234212635,-0.555722350051254
1638063130061998800,10.777998779296874,3.4621158460900188,6.495558535853028,-0.018088285604678095
1638063130082143700,10.798143798828125,2.301583582213521,6.936912894576787,0.16714841827005147
1638063130102288600,10.81828857421875,-0.44819034222364423,5.727438905137777,0.4966564130984246
1638063130122434800,10.838434814453125,-5.687673880982398,-0.8481956224709749,0.4433816633002832
1638063130142579700,10.858579833984376,-17.58754820587635,-12.958597780895232,1.374548816305399
1638063130162724600,10.878724609375,-10.744716447532177,-22.658359770059583,8.022661135625839
1638063130182870800,10.898870849609375,-1.5359396939620376,-1.6996066998571155,-0.8926464663550258
1638063130203015700,10.919015625,-1.235521746148169,8.19804459053874,-4.869282445144653
1638063130223161600,10.93916162109375,3.4272441469341515,4.65884053633213,-5.88940875172615
1638063130243306800,10.959306640625,2.1630068861722944,-2.3742671256303787,-4.4968931938365095
1638063130263452000,10.979451904296875,2.0740403164744374,-4.701142385488748,-1.1940136777177452
1638063130283597800,10.999597900390626,-1.8355971787974237,-8.066099879857898,1.3921215901359916
1638063130303743000,11.019742919921875,-1.2386159127712248,-4.7241772241175175,0.3084405107498169
1638063130323889000,11.039888916015625,6.896702464741468,1.900948187369108,-2.6968174102753397
1638063130344033800,11.06003369140625,5.24283168014288,6.336127852353453,-4.001363008289039
1638063130364179000,11.080178955078125,1.3195692718833685,5.460646748071909,-3.731293436987698
1638063130384324900,11.100324951171874,2.989388443981111,1.1454039605885744,0.4109713492892682
1638063130404470500,11.120470458984375,5.531928023475408,-4.95360557295084,5.243789711520075
1638063130424616400,11.140616455078124,3.4537487075001,-4.1828965102642774,3.7171076752468943
1638063130444761600,11.16076171875,1.8933271909713745,-1.7507646401643753,1.4647222775749862
1638063130464906500,11.180906494140626,0.06430500665009022,0.8082277692198753,-1.1943439325854182
1638063130485052700,11.201052734375,0.6140899294763803,2.463825231480598,-2.19593724200204
1638063130505197600,11.221197509765625,1.3915993198275565,2.723418416953087,-1.0162199467927218
1638063130525343500,11.241343505859374,0.7260434070080518,1.3102379644364117,0.2469488444874063
1638063130545488600,11.261488525390625,-0.01925064391493797,-0.37493981257379055,1.1603243202142417
1638063130565633500,11.281633544921876,-0.6687608463406562,-0.3701145843744278,1.671720621804893
1638063130585779500,11.301779541015625,-1.897943744856119,0.9578718027204275,1.1114205885745585
1638063130605924600,11.321924560546876,-2.9854104802608488,2.22625799985528,0.020188655417412518
1638063130626070500,11.342070556640625,-3.445063296741247,2.3984213236778973,-0.2910819641917944
1638063130646215400,11.36221533203125,-2.6672563847482205,2.3610189370006323,-0.06940013783201575
1638063130666360600,11.382360595703124,-0.4637231346592307,2.7720933082729577,-0.16204335021600128
1638063130686506500,11.402506591796875,-0.7574427538782358,1.438678466388583,-0.3303210647769272
1638063130706651400,11.4226513671875,-3.3409295530498024,-0.8432739481598138,-0.33824893516674637
1638063130726797600,11.442797607421875,-3.8317660278230905,-1.4875205309689044,1.7533038032531738
1638063130746942500,11.4629423828125,-2.4018241178587076,-2.511106038093567,6.673671707990765
1638063130767087400,11.48308740234375,-1.3706816194832325,-3.542705340325832,5.7514925654202695
1638063130787233500,11.503233642578126,-0.4413806622087955,-4.535170902043581,2.107412278591841
1638063130807378400,11.52337841796875,-2.1319068145096303,-7.018043363821506,-0.9274335559673607
1638063130827523600,11.543523681640625,-4.479674932532012,-8.528130531385541,-1.238986791910231
1638063130847669500,11.56366943359375,-4.841314534027874,-6.7063067341357465,2.2824444358490408
1638063130867814700,11.583814697265625,-3.6912338137999177,-5.2038306260973215,3.727537007063627
1638063130887960300,11.603960205078126,-2.7320675873547793,-2.862881248179078,3.7392464418187736
1638063130908105700,11.624105712890625,-0.004173486292362213,0.3618956220835447,2.9378350746154784
1638063130928250600,11.644250732421876,1.6024173684760927,1.8882593861877917,0.7679540648899972
1638063130948396500,11.664396484375,2.025380038201809,0.6837257757604122,-3.3852363122880456
1638063130968541700,11.684541748046875,-0.22975801917910574,-5.1349868069738145,-5.915275014388561
1638063130988687600,11.7046875,0.9318635743040591,-4.678728309106827,-5.431303749209642
1638063131008832500,11.72483251953125,3.041662528836727,-3.5197616871118544,0.2990134878434241
1638063131028977700,11.744977783203124,1.8955290849298239,-3.312411314573884,0.5761622037507593
1638063131049123600,11.76512353515625,0.9040303224176168,-3.877397898185253,0.4305988636925816
1638063131069268500,11.7852685546875,1.6419807325795293,-3.1820576724767684,0.41335104750003665
1638063131089414700,11.80541455078125,2.7935753645017742,-1.375579912918806,0.6355092226672917
1638063131109559600,11.8255595703125,3.883718041117489,1.403133690276742,0.38575427125059064
1638063131129704400,11.845704345703124,3.6196398191854358,3.221452109754085,-0.6937588017359375
1638063131149850600,11.8658505859375,3.844668179494142,4.15372126918435,-1.0671863100506365
1638063131169995500,11.88599560546875,3.948918535302579,5.470743779194355,-1.4577657364353536
1638063131190141400,11.906141357421875,3.995249493844807,6.323239729207754,-1.900195761566609
1638063131210286600,11.92628662109375,3.972664444810152,5.766966613405943,-1.3903174633234738
1638063131230431500,11.946431396484375,4.030652523398399,5.366230096274614,-0.9845242473244666
1638063131250577400,11.966577392578126,3.7662089752852914,4.680369062051176,-0.3537634612932801
1638063131270722600,11.98672265625,3.2877941751897333,5.167580916586518,-0.37848274587765335
1638063131290868500,12.006868408203125,2.0920140723213554,5.4446507220387454,-0.4962387722082436
1638063131311013400,12.027013427734374,0.2002151138305664,4.859639003008604,-0.2568640527695417
1638063131331158500,12.047158447265625,-3.9092467423886057,2.191510511600971,-0.03237520616501569
1638063131351304400,12.067304443359374,-9.492551901879906,-4.087031413224339,-0.13444631823822856
1638063131371449300,12.087449462890625,-16.31270596446991,-14.441286653923987,3.5792139930337665
1638063131391595500,12.107595458984376,-6.58078533450067,-13.77155667029023,4.866705872654914
1638063131411740000,12.127739990234375,-2.74494372780174,4.283152535739541,-2.774488678976893
1638063131431884800,12.147884765625,0.5495248105853796,5.94575081667304,-2.962737168420851
1638063131452031000,12.168031005859374,0.48925300497412677,0.5169149188816548,-3.03853329090029
1638063131472175900,12.18817578125,1.749191107237339,-0.5716384427160024,-2.587876850824058
1638063131492321800,12.20832177734375,-0.18909750748872756,-5.7680573312520975,0.4855813307240605
1638063131512467000,12.228467041015625,-1.1631579362049698,-10.426072522675991,1.1901128708869217
1638063131532611800,12.24861181640625,3.1936405582427976,-8.989825667348503,-1.2299708340227604
1638063131552757800,12.2687578125,8.170719361239671,7.128714400327206,-4.826167526039481
1638063131572903000,12.28890283203125,6.856946208414435,8.140498410499095,-5.294188357892632
1638063131593048800,12.309048828125,1.8965104971826074,4.053990728887915,-4.513362974861264
1638063131613193700,12.32919384765625,2.8444559491723775,-0.35485797853171824,1.253893123010546
1638063131633339000,12.3493388671875,5.653301071259379,-5.314739563012123,5.692199249452353
1638063131653484800,12.36948486328125,1.4147317736119032,-3.2043384778678417,2.9411282709419724
1638063131673629700,12.389629638671876,-0.04427519505620003,0.9321458253115416,0.45306598543599247
1638063131693774600,12.409774658203125,1.2574502309702336,2.302856670889258,-0.556491726988554
1638063131713920800,12.429920654296875,1.776664220574498,2.984346650421619,-0.14824980266317725
1638063131734065700,12.450065673828124,1.0449088656604288,1.3698878387570381,0.7909737059496342
1638063131754211800,12.4702119140625,0.02218377475738525,-0.6814291892558336,0.8250238595895468
1638063131774356700,12.490356689453124,-1.5972621776700018,-0.5352092849850655,0.7556247446708381
1638063131794502000,12.510501953125,-2.7247616482555865,0.8024059311985969,-0.09972268578354268
1638063131814647800,12.530647705078126,-2.786192560774088,1.9297762224465607,-0.6404096349947154
1638063131834793000,12.55079296875,-2.412292758772522,2.846765395158529,-0.6294073255956173
1638063131854938600,12.570938720703126,-1.8873194749891757,2.649630711686611,-0.13946400026977063
1638063131875084000,12.591083984375,-0.6472330512739718,2.0254922664046284,-0.008339446865394711
1638063131895229000,12.61122900390625,-1.1510767455279827,0.9509288517147302,-0.1374419929228723
1638063131915374800,12.631374755859374,-3.0167972599104047,-0.29648470001816746,0.5258145569130778
1638063131935520000,12.65152001953125,-3.7646255054861304,-2.0072423239648343,3.490755957379937
1638063131955666000,12.671666015625,-3.9715290110394355,-2.817179235190153,5.988620821106434
1638063131975810800,12.691810791015625,-3.4597535008728504,-4.119235646736621,3.4021523757755756
1638063131995955700,12.711955810546876,-2.0427812548577786,-5.4242772115737194,1.0708914481788874
1638063132016102000,12.732101806640625,-3.347752384807169,-6.775501266393065,-1.1178145273953675
1638063132036246800,12.752246826171875,-5.631978297245502,-7.124983981627225,-1.2580623715192079
1638063132056393000,12.77239306640625,-5.4786663888871665,-6.17361732301712,2.566747261294722
1638063132076537900,12.792537841796875,-3.394400446474552,-3.707562725049257,3.344294937829673
1638063132096682800,12.812682861328126,-2.40927063447237,-1.29293436293602,3.7537934380874036
1638063132116829000,12.832828857421875,0.6130981419600546,0.6089706867665052,2.6172183883816
1638063132136973800,12.852973876953126,1.9524258611500263,0.7879939594864844,-1.4915047782994806
1638063132157118700,12.87311865234375,1.484994227361679,-4.87969511808753,-5.226322443890571
1638063132177265000,12.893264892578125,1.2273135975122451,-5.526157038858533,-5.577950938981771
1638063132197409800,12.913409912109374,3.269977947992086,-4.440226426979899,0.9425682889960706
1638063132217555700,12.9335556640625,2.92145735578835,-4.657383323261142,2.2453856019124387
1638063132237700600,12.95370068359375,1.3218233344204724,-4.715104859867692,-0.3156405052565038
1638063132257845800,12.973845703125,2.7500872281700373,-4.130749558919668,-0.7501564693275838
1638063132277991700,12.99399169921875,3.1726123832613227,-2.539343121540546,-0.2846359298575669
1638063132298136800,13.01413671875,3.461743505646288,0.727152829554677,-0.21074030723720788
1638063132318282800,13.03428271484375,3.4992332783460616,2.716927301368117,-1.38571786057353
1638063132338428000,13.054427978515625,4.219832156212628,3.6511996173143384,-1.9164577450595794
1638063132358572800,13.07457275390625,4.622835156971216,4.635269691130518,-1.4834678945772348
1638063132378719000,13.094718994140624,4.4861359452396625,5.842867365303635,-1.0972383339650928
1638063132398863600,13.114863525390625,4.790437164227664,6.4861915725708,-1.2129995332166552
1638063132419009500,13.135009521484376,5.0196284894347185,6.734740801459551,-1.076593897604197
1638063132439154400,13.155154541015625,4.707322535428404,6.360815134364366,-1.0224158788233995
1638063132459299300,13.17529931640625,3.9096296042263505,6.108373574212193,-0.7689196950517594
1638063132479445500,13.195445556640625,2.914506221476197,5.905315345910191,-0.9019029550001024
1638063132499590400,13.21559033203125,0.9912994405478238,5.15840216935277,-1.013165381527692
1638063132519735300,13.2357353515625,-2.7985356172576545,1.80569859187901,-0.6526704200223088
1638063132539881500,13.255881591796875,-12.620547729301451,-7.26306032693088,-0.28852994162142276
1638063132560026400,13.2760263671875,-17.256500726521015,-18.600751435196397,6.549398847112059
1638063132580172500,13.296172607421875,-2.885462205560505,-8.501652858826517,1.345374159747362
1638063132600317400,13.3163173828125,-2.17892400175035,6.1310676365792744,-3.933927886919677
1638063132620462300,13.33646240234375,0.8922954609602689,5.0029135014772415,-3.6152345699638126
1638063132640608500,13.3566083984375,0.5656400790840387,-0.5924246256351471,-3.048609571495652
1638063132660753400,13.37675341796875,1.587183266726136,-1.547779477098584,-2.740844475789368
1638063132680899300,13.3968994140625,0.04973901342004537,-5.532864427542686,-0.16715287524946032
1638063132701044500,13.41704443359375,-1.546636152282357,-8.158906758370994,1.0176792056903243
1638063132721189400,13.437189453125,1.068530564266443,-7.9300021411508315,0.3908239026650786
1638063132741335300,13.457335205078126,6.757883192116021,5.816623501500487,-3.1476281641304493
1638063132761480400,13.47748046875,5.5532496284455055,7.3836144595474,-3.3077304632812736
1638063132781626400,13.49762646484375,3.1146228433683514,2.8477549907177684,-2.8404627878829833
1638063132801771500,13.517771484375,2.86729731105566,-0.9657897362381219,1.7653601517498492
1638063132821916400,13.53791650390625,5.566208478739857,-2.5932582516014575,4.458230870226025
1638063132842062600,13.5580625,2.5063100359886885,-2.2007921346873043,2.9467309132546187
1638063132862207500,13.57820751953125,0.5053692963860928,-0.60277007856071,0.9022634588755667
1638063132882353700,13.598353759765626,-0.0915244374871254,1.0388181475698948,-0.8535438516311347
1638063132902498600,13.61849853515625,0.6960674440044909,1.882544515672326,-0.6624521015852689
1638063132922643500,13.6386435546875,0.701882267763093,2.3062620954185724,-0.14557119457107037
1638063132942789600,13.65878955078125,0.34610067158043384,1.5487538750886916,0.5842451185718178
1638063132962934500,13.6789345703125,-0.3460066000888124,0.6156272220462561,1.030384811875969
1638063132983080400,13.69908056640625,-1.3353987091779709,0.09566343698799609,0.9547869884476065
1638063133003225300,13.719225341796875,-2.310452678976208,0.7952367702215909,0.49385827027987683
1638063133023370500,13.73937060546875,-3.0505086831152437,1.6155746639519928,0.07884864191785454
1638063133043516400,13.759516357421875,-3.6444612489700314,1.3538210855752228,0.2737033977590501
1638063133063661300,13.779661376953126,-3.014897563768923,1.5329741221547126,0.5316119911454618
1638063133083806500,13.799806396484374,-1.4970096593260764,2.137230055359006,0.392110508409515
1638063133103952400,13.819952392578125,-0.6300254574939608,1.575458342140913,-0.07995126939751207
1638063133124097300,13.84009716796875,-1.5786816881015895,0.39373511393666266,-0.49124490944370625
1638063133144243500,13.860243408203125,-2.935378036852181,-0.546357286465168,0.9592072891078889
1638063133164388400,13.880388427734376,-2.3881483514666555,-2.239738243675232,4.1052717110529535
1638063133184533200,13.900533203125,-1.7560536864832044,-3.79317939979732,4.804009177984297
1638063133204679400,13.920679443359376,-1.6086203147694467,-4.01334483024478,1.5343290438950061
1638063133224824300,13.94082421875,-2.3124670875385402,-5.297765047335624,-0.7965428843840956
1638063133244970500,13.960970458984375,-5.449468351453542,-5.383941109532118,-1.4255419214397669
1638063133265115400,13.981115478515624,-7.189521043467521,-6.949635013505816,0.8819653517343103
1638063133285260500,14.001260498046875,-4.689662667836249,-5.283512065577507,3.6489915858760473
1638063133305406200,14.02140625,-2.431648762758076,-3.16047595526576,4.998281750023365
1638063133325551600,14.041551513671875,-0.06083119305968284,-0.8832529073268175,4.50901500878483
1638063133345697300,14.061697265625,2.9396961923122404,-0.036059155374765395,1.614200160728395
1638063133365842400,14.081842529296875,1.028145946907997,-1.4300707970410584,-2.0836748446516693
1638063133385987600,14.101987548828125,-1.4469097036391496,-6.6915247600674626,-4.6259120801985265
1638063133406137300,14.122137451171875,1.3676596413135527,-7.059865905028581,-2.29185918379575
1638063133426282800,14.14228271484375,3.208278739926219,-7.077099363902211,1.0564627445276826
1638063133446428400,14.162428466796875,2.8516116661459208,-5.259321042650938,0.021839345233887433
1638063133466573600,14.182573486328126,3.3839950800552963,-3.1774750208616256,0.2245986271219328
1638063133486718500,14.202718505859375,3.2954768386468287,-1.7125485990166662,0.5624861816303804
1638063133506864600,14.22286474609375,2.821412634976208,1.1105752237915991,-0.01481043297778815
1638063133527009500,14.243009521484375,3.653300681246817,3.325842458555102,-1.2546680529057979
1638063133547154400,14.263154541015625,4.05704017958641,4.289264296618104,-0.9278257701553404
1638063133567300600,14.283300537109374,4.702706858326494,5.232878441405296,-0.4924662313995883
1638063133587445500,14.303445556640625,4.478767462298274,5.802133788377046,-0.8054255712807178
1638063133607591700,14.323591796875,4.640471643687785,6.135463825711607,-0.5544189758351072
1638063133627736600,14.343736572265625,5.600191996884345,6.132509652081132,-0.9298939547315239
1638063133647881500,14.363881591796876,5.20566076413393,6.07518091418445,-0.9276660495489836
1638063133668027600,14.384027587890625,4.286530487740039,5.8417146881371735,-0.1552481371179223
1638063133688172500,14.404172607421875,2.9603888517290353,6.207294551691413,0.2514440735474229
1638063133708318500,14.424318359375,0.700205201396346,5.5890977714180945,-0.04234722266830504
1638063133728463400,14.44446337890625,-2.502274789123237,2.628955587926507,-0.8862897908046841
1638063133748608500,14.4646083984375,-9.968637382245063,-4.54365815988183,-0.803642194995284
1638063133768754400,14.48475439453125,-14.08814307809472,-14.152733915948867,3.545872279924154
1638063133788899300,14.5048994140625,-5.186843835461139,-9.109678373697399,3.0622604957073927
1638063133809045500,14.52504541015625,-3.3342081358402966,2.802784799134731,-1.5173703103095293
1638063133829190400,14.5451904296875,-2.659462954393029,3.6100469381928444,-2.3348072219014164
1638063133849335600,14.56533544921875,-1.0209697716683148,0.8877180700421333,-3.3115976601034403
1638063133869481500,14.5854814453125,0.009136661657691001,-0.6863070244252681,-3.6555879154011603
1638063133889626600,14.605626708984374,-1.6232666797593236,-2.9187182862132786,-1.5058809480458497
1638063133909772500,14.6257724609375,-2.5795053283199665,-9.354100878044962,0.5882309733375907
1638063133929917700,14.645917724609374,1.9384221779778599,-9.842946471261978,-0.12870557349598966
1638063133950062600,14.6660625,10.390996533119678,2.5394097570359704,-2.8142107407733796
1638063133970208800,14.686208740234376,6.525754936674237,7.814838469401002,-4.232471565294266
1638063133990353700,14.706353759765625,2.527526719279587,6.576299128997325,-5.729226373076439
1638063134010499600,14.72649951171875,4.6571901387766,2.9440824445724485,0.6318877442345022
1638063134030644500,14.74664453125,6.946390332496166,-3.8292514146536587,5.531577894863486
1638063134050789600,14.76678955078125,2.69639801581949,-7.467320332238078,4.303851624897122
1638063134070935600,14.786935546875,0.8615244751214981,-3.882379193729162,0.6615878859713673
1638063134257071900,14.97307177734375,5.777295699718594,7.453516263291239,-0.9222335031062364
1638063134277217000,14.993217041015624,5.12076538939774,7.738751839542388,-0.5984931318938732
1638063134297361200,15.013361083984375,2.898001076877117,7.082809558242559,-1.0734849718034267
1638063134317506000,15.033506103515625,-0.926024127560854,3.740692841234803,-1.5592115562170743
1638063134337651000,15.05365087890625,-8.863878151255845,-3.782584356024861,-2.2768407706230875
1638063134357795800,15.0737958984375,-23.439755646455286,-22.79788982130289,3.343437151956558
1638063134377941200,15.093941162109376,-4.977172911021113,-18.841534706258773,5.238923566788435
1638063134398081000,15.1140810546875,0.540760489371419,1.849651130852103,-1.7216531119704246
1638063134418226000,15.134225830078124,0.11402531536966562,9.580895371243358,-3.9210920784831043
1638063134438370800,15.154370849609375,3.121742612245679,9.32946854109168,-3.6135496856167912
1638063134458516200,15.17451611328125,1.7192612483978271,1.556737275058031,-2.9224507507398725
1638063134478661000,15.1946611328125,-2.2420979585438965,-3.545036998143792,-0.33942747742682694
1638063134498805000,15.214804931640625,-2.1934967169821262,-7.643534392756223,2.173717957539856
1638063134518950000,15.234949951171876,2.066766526079178,-9.266928206026554,2.30006528660506
1638063134539095000,15.255094970703125,8.404503567194938,-6.105467915898561,-3.5283632189795373
1638063134559240200,15.275240234375,9.379777755615114,6.29463731957972,-7.296632341665029
1638063134579384000,15.295384033203124,4.234852907472849,6.614389497938752,-7.243558923125266
1638063134599529000,15.315529052734375,1.1420566959872842,3.990642584571242,-2.7824925372123714
1638063134619673900,15.335673828125,6.337434258776903,-0.8182347839713097,3.2085923359200357
1638063134639819300,15.3558193359375,5.0490556594491,-5.31069700962305,5.342168837207556
1638063134659964200,15.375964111328125,1.2030611997872591,-4.4956724198699,3.0396684324100613
1638063134680108000,15.39610791015625,0.7033079897172748,-0.3383206852287054,-0.40978995748497543
1638063134700253000,15.4162529296875,2.0346084697961806,1.8020424074590204,-1.834600568975508
1638063134720397800,15.436397705078125,1.2463672575503586,2.9010511120975018,-0.4038181165337562
1638063134740543200,15.456543212890624,0.2875274865806103,2.1581857496261594,0.262223533976078
1638063134760688000,15.476688232421875,-0.9412100062549114,0.5199608624488115,0.7702875493388622
1638063134780832000,15.49683203125,-1.4551532158493994,-0.39428105738162994,0.9039245239555835
1638063134800977000,15.516976806640624,-1.9523346757352351,1.108552193531394,-0.452713372606039
1638063134821122000,15.5371220703125,-2.457066989392042,2.4917232922315597,-1.507866568905115
1638063134841267200,15.55726708984375,-2.2685060729980466,2.470131638148427,-1.9911369923382995
1638063134861412000,15.577412109375,-1.3864216249287127,2.198448201909661,-1.5263453516647218
1638063134881556000,15.597555908203125,-1.6122218463927507,2.1464567333877085,-1.262980246438086
1638063134901700900,15.617700927734376,-3.2294381400719283,1.1449334204673767,0.3663688219748437
1638063134921846000,15.637845947265625,-3.1923452577352522,-2.0279513499945403,4.120511658021807
1638063134941991200,15.6579912109375,-2.6107693583726883,-4.646238828912377,5.965440436527133
1638063134962136000,15.678135986328124,-2.9386259327322244,-4.215530951887369,2.9500705790713426
1638063134982280000,15.698280029296875,-2.7158558727443216,-5.24840626540482,0.11387304741740226
1638063135002424800,15.7184248046875,-5.4494870561540125,-7.992616125974059,-0.33069727767817675
1638063135022570200,15.7385703125,-6.898654767853021,-7.17303635713458,0.3555328821185976
1638063135042715100,15.758715087890625,-5.667821764042973,-5.8648541561841965,2.1727885677352545
1638063135062860000,15.778860107421876,-3.553494445365667,-2.1285008054584265,3.1161773793339727
1638063135083005000,15.7990048828125,0.5201588692389428,0.4983364751398563,3.2033667102262378
1638063135103149000,15.819149169921875,3.6492227642834183,1.3086223459333182,0.8397844986088574
1638063135123294200,15.839294189453126,3.1464836702704426,-3.4132413405448196,-3.6865599767699835
1638063135143439000,15.859439208984375,1.4295201774209736,-6.144333945387602,-7.543411638271809
1638063135163584000,15.879583984375,0.6468710860937833,-5.721473859253526,-2.492140640860796
1638063135183729000,15.89972900390625,2.321928451105952,-7.451539410260319,0.7191299743577837
1638063135203874000,15.9198740234375,-0.8262554472111165,-6.96434275329411,-0.47703620521873236
1638063135224018200,15.94001806640625,3.1128324528202413,-5.374866991716623,0.559755076166056
1638063135244163000,15.9601630859375,5.917934588986635,-2.8658664014697073,1.6190326954513787
1638063135264308000,15.980307861328125,4.827031449392438,0.41415129449963567,1.0759978314071894
1638063135284452900,16.000452880859374,4.08081005449146,2.668217923256755,-1.239895138926804
1638063135304598000,16.020597900390626,5.369264933925867,4.489209361335635,-3.026572219471633
1638063135324742100,16.0407421875,6.455308943051099,5.886196219420433,-2.7022254067987204
1638063135344887000,16.060886962890624,6.3344385840922595,6.088334994789958,-1.6251052933633328
1638063135365032000,16.081031982421877,5.711969533327221,6.132182904344797,-0.8708461379572748
1638063135385177000,16.101177001953126,6.727609049883484,6.856959067896008,-1.0415227303534746
1638063135405323000,16.121322998046875,6.882660495385527,7.6334098891049615,-0.939761561012268
1638063135425468000,16.141468017578124,5.992128536966443,7.970841516539454,-0.10222407414522021
1638063135445612800,16.16161279296875,4.764927752178907,7.919046447372436,-0.8554331725090741
1638063135465757000,16.1817568359375,1.9975883604347704,6.316854996606708,-1.294916768924892
1638063135485901800,16.20190185546875,-2.602390821605921,1.7452847474485635,-0.8377537234336138
1638063135506047000,16.222046875,-13.452046483993529,-8.506976684197783,-1.1419640492677687
1638063135526191900,16.24219189453125,-23.398521134269235,-28.855400054240224,5.148858095937967
1638063135546336800,16.262336669921876,-0.963566507230699,-14.58843185634613,1.2682035340443252
1638063135566482000,16.28248193359375,-0.9577648352146149,5.420969986721873,-4.496705854570865
1638063135586626000,16.3026259765625,1.6811656187593935,8.80670723426938,-6.596939765965939
1638063135606771000,16.32277099609375,3.2541438345223663,2.5687352202415465,-4.395907977303862
1638063135626915800,16.342915771484375,3.4876252581387757,-1.132153433871269,-2.016431008070707
1638063135647061000,16.36306103515625,-0.386076708137989,-9.142509214675426,1.8768615015998482
1638063135667206100,16.3832060546875,-0.008186813586950302,-14.188165294814109,2.8524261973991987
1638063135687351000,16.40335107421875,6.824665987056493,-0.8407616730779409,-3.0601696609079836
1638063135707496000,16.423495849609374,10.244594842541217,11.002102478349208,-4.346526691280305
1638063135727639800,16.443639892578126,5.187162984412908,8.174574283102155,-5.322143701788783
1638063135747785000,16.463784912109375,0.8840601320564746,5.475568422871827,-2.09696614177078
1638063135767930000,16.48393017578125,6.922448315894603,-3.474910737994313,4.306844376972317
1638063135788075000,16.504074951171877,3.4889044842943546,-9.348563702183961,5.45586886614561
1638063135808220000,16.524219970703125,1.208836860579252,-4.726937336480617,2.0052368293613196
1638063135828364800,16.54436474609375,0.9359713749490678,1.4704355406552552,-1.911279465638846
1638063135848510000,16.564510009765623,2.559486914902925,3.7438995283216236,-2.568779351644218
1638063135868654000,16.584654052734376,1.9331898302823305,3.5178456243574616,-0.5926926289215684
1638063135888799000,16.604799072265624,1.1031330910921096,0.965528454953432,1.1279046903856098
1638063135908944000,16.62494384765625,-0.9095511316657066,-0.8476496790260076,1.635328581213951
1638063135929088800,16.6450888671875,-1.8194190741956233,-0.33667116445600986,0.6172238435879349
1638063135949234000,16.66523388671875,-2.40445885027647,1.6954998490601778,-1.1801850588515401
1638063135969379000,16.685379150390624,-2.253773783290386,3.3318028282642365,-2.312549797385931
1638063135989524000,16.70552392578125,-1.9936406457222997,3.4368706379354,-2.2483272083222863
1638063136009668900,16.7256689453125,-1.3648751251615583,2.4650673404961823,-2.0657988500908018
1638063136029813000,16.74581298828125,-2.512207277333736,0.0898679024517536,-1.5046724490389227
1638063136049958000,16.7659580078125,-3.9419340832427143,-1.2776806797027587,0.838951554916054
1638063136070103000,16.78610302734375,-4.925611650609969,-2.4190438404679298,4.953007607057691
1638063136090248000,16.806248046875,-2.565378895550966,-3.5038492477089163,5.746154711523651
1638063136110393000,16.82639306640625,-0.06417436600774526,-3.2099305987864732,3.88518928271383
1638063136130538000,16.8465380859375,-1.6561264545708894,-6.387232016646862,0.17259557776004075
1638063136150683000,16.866682861328126,-5.696917510145902,-8.384400690364837,-2.7011279669508337
1638063136170827000,16.886826904296875,-6.349019482630491,-5.23841035656929,0.4060125578381121
1638063136190972000,16.906971923828124,-5.043223300033808,-5.322841620925068,3.667765259929001
1638063136211117000,16.927116943359376,-3.9047769034981727,-2.089500335934758,4.09738037328124
1638063136231262000,16.947261962890625,-0.20268983338102697,0.15794365981221198,3.4496257823511955
1638063136251406800,16.96740673828125,3.8203485617518425,2.009962104317546,0.4085401400869712
1638063136271551700,16.9875517578125,3.146103146520257,-1.2603846769869327,-3.624398119628429
1638063136291697200,17.007697265625,1.081543190574646,-6.433870433703064,-6.896202114003897
1638063136311841000,17.027841064453124,1.7498077778309582,-5.066041865563393,-2.5305460671007634
1638063136331986000,17.04798583984375,3.296802826553583,-6.164676476192474,1.135906064403057
1638063136352130800,17.068130859375,-1.5569506255477665,-6.334200683683156,0.41417613667994735
1638063136372275700,17.088275634765626,3.086777389587462,-5.069449628180265,-0.0440151193479076
1638063136392421000,17.108421142578123,5.840865962353348,-2.5031565403938294,-0.4303387514516711
1638063136412565500,17.1285654296875,4.091102023664116,0.18219781110286712,-0.19981646990180013
1638063136432710700,17.148710693359376,3.3403777643859383,1.6430606367707252,-0.650732145436108
1638063136452855600,17.16885546875,4.203520488359034,3.341465559622645,-2.3426026980832217
1638063136472999700,17.188999755859374,5.129803851377964,4.646888232731819,-1.9523375983446836
1638063136493144600,17.20914453125,5.0421413500159975,5.696690131130814,-1.1950737081646918
1638063136513289500,17.22928955078125,5.3289381842345,6.544854773941636,-1.8075372054830192
1638063136533434600,17.2494345703125,6.487781472110748,7.04142365488708,-1.40262427944988
1638063136553579500,17.26957958984375,6.877230871552229,7.64919256464839,-1.587875340643525
1638063136573724400,17.289724365234374,5.562254188156127,7.769488923111558,-0.8515808809950948
1638063136593869600,17.30986962890625,4.217829876479506,7.94544696304202,-0.7518477103501557
1638063136614013700,17.330013671875,1.3015119294062256,6.654273764559626,-0.7748910245463252
1638063136634158600,17.35015869140625,-3.825500245426595,1.910638975778222,-0.6368515041217208
1638063136654303500,17.370303466796877,-15.29478330541253,-8.428831368243694,0.08157477894611656
1638063136674448400,17.390448486328125,-21.36418388262987,-27.57827583937645,7.6402482106924055
1638063136694593800,17.41059375,-0.3028109804302454,-13.214843994027376,2.944104071882367
1638063136714738700,17.43073876953125,-0.30456396157741544,6.527380492049455,-5.663064340382814
1638063136734883600,17.450883544921876,2.909015222844481,9.644837389799951,-5.903122219780087
1638063136755028500,17.471028564453125,3.2408564829260107,3.22560221517086,-5.553209880957007
1638063136775172400,17.49117236328125,4.583485143357515,0.9460726438552141,-3.7985000102981923
1638063136795317800,17.51131787109375,1.4408552259057759,-5.181536376702785,0.2703139197175391
1638063136815462700,17.531462646484375,-1.4420426821246741,-14.16492704256773,1.640257854309678
1638063136835607600,17.551607666015624,1.1899398524075746,-12.816236305618286,-0.48032794024050235
1638063136855752400,17.57175244140625,8.482012338811158,7.163109421882033,-3.088095486448705
1638063136875897600,17.591897705078125,8.293016538131237,10.120264698517323,-3.484616139450669
1638063136896042500,17.61204248046875,2.761637672971189,6.834778215748071,-3.1516905912637707
1638063136916187600,17.632187744140627,5.843910736876726,-0.23483342274725436,1.9135794131442903
1638063136936331500,17.65233154296875,5.988574643877148,-6.647904229527711,4.675916466556489
1638063136956476400,17.672476318359376,1.4576637373656034,-6.897672771078348,2.1751514974743125
1638063136976621600,17.69262158203125,-0.8055331233084201,-0.7615133643180132,-0.948991453911364
1638063136996766500,17.712766357421874,1.5388134958326816,2.6604373523831364,-2.3945567572042346
1638063137016911600,17.73291162109375,2.69965175691843,4.303462917840481,-1.4965113544151185
1638063137037056800,17.753056884765623,1.6393828250408171,2.556221775627136,0.3383571447815746
1638063137057201700,17.77320166015625,-0.8663631473243236,0.5095885215163231,1.5106681823223829
1638063137077346600,17.7933466796875,-2.9036463892877102,-0.9031225599229336,1.1635771114651112
1638063137097490400,17.813490478515625,-2.856066307467222,0.1393377435415983,-0.11246705307699739
1638063137117635600,17.833635498046874,-2.9561528215944763,2.8539573524892328,-1.5063906511336564
1638063137137780700,17.85378076171875,-2.2234616471350193,3.3726386965215203,-1.5927334481991826
1638063137157925600,17.873925537109375,-0.7563055665418505,2.512526426285505,-1.4698609556376934
1638063137178070500,17.894070556640624,-0.5666871039189398,1.7327888384908436,-1.3931816205829382
1638063137198215400,17.91421533203125,-3.3363363800406454,0.06582534808516502,-0.4535534766919911
1638063137218360600,17.934360595703126,-4.285976653249562,-2.414890227919817,2.9202684382647273
1638063137238505700,17.954505615234375,-2.281823819732666,-2.8130121786385773,6.189018890288472
1638063137258650600,17.974650634765624,-1.0591884431645273,-3.1574621604025364,3.9950305903971195
1638063137278794500,17.99479443359375,-1.505083952449262,-4.918348381608724,0.6638011050414293
1638063137298939400,18.014939453125,-3.89973686350435,-8.0342025203377,-1.7020624224461613
1638063137319084500,18.03508447265625,-6.354296546250581,-6.377894863981008,-1.3391981014609335
1638063137339229700,18.055229736328126,-5.732927565681934,-5.2673371758461,2.0275114972725508
1638063137359374600,18.07537451171875,-4.53409976568073,-3.166739691835642,3.458716851301491
1638063137379519500,18.09551953125,-1.1567254189394414,-0.9978928474634885,3.5680279976308342
1638063137399668200,18.115668212890625,3.121891665327549,0.3221913882046938,1.6961394621379673
1638063137419813000,18.135813232421874,3.999378264212608,-0.9216396288663148,-2.330768467904627
1638063137439958000,18.1559580078125,1.8736849173903465,-6.025514673739671,-7.644494177699088
1638063137460102100,18.17610205078125,-0.5774263054024428,-6.683276571682095,-8.110588425403833
1638063137480247300,18.196247314453124,2.8280636172980067,-6.710032476660609,-1.066524192880094
1638063137500392200,18.21639208984375,0.5904900043107569,-6.51299248573482,-0.9905215880431234
1638063137520537000,18.236537109375,-0.2698316708922386,-5.634386527431011,-0.5248429354019463
1638063137540682000,18.256681884765626,4.426152893441915,-3.1029847202837466,0.15242401960790156
1638063137560827100,18.2768271484375,4.638910677981376,0.22828560853898525,1.6663057571493087
1638063137580972300,18.29697216796875,5.442864423143863,2.865925438180566,-0.5845773096682504
1638063137601117200,18.3171171875,5.520451520693302,4.169419189053774,-2.6038229002356528
1638063137621262000,18.337261962890626,6.147089966097473,5.616164057520032,-2.9333684505954385
1638063137641406000,18.357406005859374,5.373909544861316,6.198746503576636,-1.8496069994494317
1638063137661551400,18.37755126953125,4.741231819292903,6.142865626400709,-0.9811024561822413
1638063137681696300,18.3976962890625,5.398823621365428,6.684770609632134,-1.151463699018955
1638063137701841200,18.417841064453125,5.693841171440482,7.1092147500872604,-1.3977739168092607
1638063137721986000,18.437986083984374,5.43240908010304,7.162256019923091,-1.1292065667644142
1638063137742131200,18.458131103515626,4.484982975812256,7.274507603618503,-0.7804886984229087
1638063137762276000,18.478276123046875,2.8092849748089908,7.3615744771748775,-0.8678183145686984
1638063137782421000,18.4984208984375,-0.3308692001789808,5.53684852874279,-1.1371847060367464
1638063137802566100,18.518566162109376,-6.746255882686376,-0.915803762319684,-1.0715794304430484
1638063137822711300,18.538711181640625,-21.86579718748331,-17.326659719896316,1.445676362451911
1638063137842855200,18.558855224609374,-11.886772851258515,-27.479510344719884,8.975982435435057
1638063137863000000,18.579,0.9147744192719459,-3.2067478770971296,-2.1087451346307993
1638063137883145200,18.599145263671875,-0.4661252273648977,8.408582945463062,-7.889350397288799
1638063137903290000,18.6192900390625,2.821440692026913,7.124231117433309,-7.350377960377931
1638063137923435300,18.639435302734373,4.95224305242598,2.0577555366277696,-5.8431333227634425
1638063137943580200,18.659580078125,3.6046506321072576,-2.2794740417361257,-1.9244576577723025
1638063137963725000,18.67972509765625,-0.6137199271202087,-12.808252905648946,1.6449530263885854
1638063137983870200,18.6998701171875,0.426726406173408,-13.687765457403659,1.3471557824671268
1638063138004015000,18.72001513671875,8.457645959317684,4.872647537663578,-2.3575997762069103
1638063138024160300,18.74016015625,6.678370679461955,9.704791215503215,-3.4169343498438596
1638063138044305200,18.76030517578125,3.3705113291040063,6.261804725036025,-3.369586615474522
1638063138064449000,18.780448974609374,5.873534306246042,-0.8419055824160575,1.5245198898032306
1638063138084594200,18.80059423828125,7.699936663457751,-6.379438586291671,5.467781422257423
1638063138104739000,18.820739013671876,2.676104292592406,-5.614624426862597,3.386295465952158
1638063138124884200,18.84088427734375,-0.5941980650484562,-0.29116145916879177,-0.9596627777904272
1638063138145029000,18.861029052734374,-1.4337790039092302,2.3775609064787626,-3.447041903337836
1638063138165174300,18.88117431640625,0.01579794617779553,3.954955769640207,-2.723777897915244
1638063138185319200,18.901319091796875,0.8057166631817817,3.2693951796680687,-0.2896388527113944
1638063138205464000,18.921464111328124,0.9868822086274623,1.2761539085268974,1.7189783398032188
1638063138225609000,18.94160888671875,-0.4142961463304236,-0.139299165096879,2.103302651315927
1638063138245754400,18.96175439453125,-1.9317557058259844,-0.6470213082194328,1.5228673002906143
1638063138265899300,18.981899169921874,-2.891986346632242,0.6925397813349962,0.8220579955212771
1638063138286043100,19.002043212890626,-3.0966753910064697,1.8137772689163685,-1.1624519798927009
1638063138306188000,19.02218798828125,-2.3871640166044235,2.156457902920246,-1.2724658676639198
1638063138326333000,19.0423330078125,-1.9322262459471822,2.3640976137936116,-1.789420095642656
1638063138346478300,19.062478271484373,-2.5554417311653492,1.1428355714052916,-1.313535690807551
1638063138366623200,19.082623291015626,-1.636343018953502,0.5678279445171356,-0.15523522283742203
1638063138386768100,19.10276806640625,-0.5954860590323805,-0.22290976071953772,2.9522976074710487
1638063138406909700,19.12290966796875,-2.4366405796959993,-2.334927633410692,3.527365732374787
1638063138427054800,19.143054931640624,-2.9308506225556132,-3.759946992281079,2.318405099285394
1638063138447199700,19.16319970703125,-2.412835048955679,-4.340780548843741,1.6714618247382342
1638063138467344600,19.1833447265625,-3.7490176019877195,-5.842260047060251,-0.7351354988716542
1638063138487489800,19.20348974609375,-6.620891134917736,-5.990096154356002,-0.7797648411277681
1638063138507635000,19.223635009765626,-6.616145401695371,-6.465755518263578,2.2536485494755207
1638063138527779800,19.24377978515625,-4.610390393678844,-4.092191572466493,3.8364047935396433
1638063138547923700,19.263923828125,-2.7185435043931006,-0.875861043509841,3.526610530093312
1638063138568068900,19.28406884765625,2.425255116198212,1.5241080941319465,0.217297473795712
1638063138588214000,19.304214111328125,3.2674948990046975,0.49027007306218146,-2.310954344888031
1638063138608359000,19.32435888671875,1.959218590030074,-5.460758391752838,-3.915102774940431
1638063138628503800,19.34450390625,0.7066472902078181,-4.628482807469368,-1.7562427793145179
1638063138648648700,19.364648681640624,3.2128222285747525,-6.550991669261455,3.5930966801747677
1638063138668793900,19.3847939453125,0.5827765073239803,-7.606130252513289,2.0028920198008415
1638063138688938800,19.404938720703125,0.025621932512521744,-5.449972793844342,-1.2819265005789697
1638063138709084000,19.425083984375,5.633135650587081,-2.8095693447083234,-1.0287636404149234
1638063138729228800,19.445228759765627,5.350467294475436,-1.9189333413928746,0.791425541370362
1638063138749374000,19.4653740234375,3.5416979168489573,-0.13077858951091764,1.3922944624848663
1638063138769518800,19.485518798828124,4.856909870305657,2.5091315231502054,-1.4700617389068007
1638063138789663700,19.505663818359373,5.262551110613345,4.5441532499223944,-2.242308824815601
1638063138809808600,19.52580859375,4.620521911592781,5.613470580652356,-1.732461067841202
1638063138829952800,19.545952880859375,4.360564276722073,6.028930619663,-1.8020064593628047
1638063138850098000,19.566097900390623,4.836224517412483,6.172488026726246,-1.8488149722889065
1638063138870242800,19.586242919921876,5.387731149464845,6.260691795358062,-1.2480623710304497
1638063138890387700,19.6063876953125,5.6982022892594335,5.516392600691318,-0.5354784573152661
1638063138910532600,19.62653271484375,5.217082321858406,5.716173999279738,-0.6625637452661991
1638063138930678000,19.646677978515626,3.7625884467005726,6.213480546849966,-0.7933990334004163
1638063138950823000,19.666822998046875,1.2683996411383152,5.132410234484076,-1.0021110496804118
1638063138970967800,19.6869677734375,-2.6296552606284616,0.926615079191327,-1.8630036566391586
1638063138991112700,19.70711279296875,-10.581630164134502,-7.357837628734111,-1.6026608218431473
1638063139011257900,19.7272578125,-17.149387090235948,-19.815348174476622,0.9060802406847477
1638063139031402800,19.74740283203125,-3.2657062620222566,-11.296745934414863,1.9630299650117753
1638063139051547600,19.767547607421875,-1.700633704817295,3.616844927769899,-1.9264160983636973
1638063139071692800,19.78769287109375,0.5813789154857397,7.398447871541976,-4.070416670770943
1638063139091838000,19.807837890625,2.820021472878754,3.894363061511516,-4.190854483531416
1638063139111982800,19.82798291015625,3.070330989438295,-2.048196265643835,-2.704875921307504
1638063139132126700,19.848126708984374,-0.38096389516890045,-6.835984084406495,-0.07851590283215046
1638063139152272000,19.86827197265625,-4.566180665074288,-12.45919163069725,0.761239515812695
1638063139172417000,19.8884169921875,-1.1141948755934834,-11.038153450417518,-2.1359698261648417
1638063139192562000,19.90856201171875,9.724584295731782,7.242136196845769,-5.26371840082705
1638063139212706800,19.928706787109373,11.14757127199173,11.805623677313328,-3.8560114112854
1638063139232851700,19.948851806640626,4.8272915616333485,8.782420349752902,-3.8176676521047948
1638063139252996900,19.968996826171875,2.8518358302906153,1.245883857947588,2.2716519698083397
1638063139273141800,19.989141845703124,6.534909133988618,-7.168003039142489,6.905173355966806
1638063139293287000,20.009286865234376,1.120285009162128,-8.325716446205973,4.53099449314177
1638063139313431800,20.029431884765625,0.018326660937815903,-2.156614554786682,-0.25069990411661564
1638063139333577000,20.049576904296874,-0.5587210934758186,2.1521657586842773,-2.546550276440382
1638063139353721900,20.069721923828126,1.2762936092585324,3.7934851047456264,-2.2767682899087665
1638063139373866800,20.08986669921875,1.1828501133423297,3.61212432898879,-1.0055187392320484
1638063139394011600,20.11001171875,0.4796592471987009,1.4210159684479235,0.8422633828777819
1638063139414157300,20.1301572265625,-0.9617758244216441,-0.7569979327201842,2.0523528008013963
1638063139434302200,20.15030224609375,-1.9862579881250857,-1.6014420937031506,1.4733090502649544
1638063139454447600,20.170447509765626,-2.8887340668380257,1.1803355732381342,0.19591518814694137
1638063139474591500,20.190591552734375,-2.846709281057119,3.2682857571214434,-2.1366073934160172
1638063139494736400,20.210736328125,-1.8955225090585648,3.5543034236609934,-1.8115492176033556
1638063139514881300,20.23088134765625,-0.6086389705941081,2.5400942321687934,-0.7920984721958637
1638063139535026400,20.2510263671875,-1.4890262593567372,0.84078213134408,-0.27034984954744573
1638063139555171600,20.271171630859374,-2.6942002135142684,-0.5721797099858522,-0.04785482537494972
1638063174964129800,55.6801298828125,-0.963307271772623,1.2642916212975979,0.3438267352990806
1638063174984273700,55.700273681640624,0.408848511916399,1.3408680804997681,0.45695787830799817
1638063175004418600,55.72041845703125,1.2782850753366946,0.7335662037283182,1.0589514926034957
1638063175024563700,55.74056372070312,0.8654179754287004,0.5262742833793163,1.128725797510147
1638063175044708600,55.76070849609375,0.9668483053803444,1.053987659651041,0.7174006663471459
1638063175064853800,55.78085375976563,0.37945699773728847,1.209331366097927,0.8145161287743597
1638063175084997600,55.80099755859375,0.7359832017421722,0.8519716338783502,0.8307618187196553
1638063175105142500,55.821142578125,0.9893336934328079,0.694746351468563,1.0263063103906809
1638063175125287700,55.84128759765625,0.7238222238272428,0.30244273163974283,1.5000599868074058
1638063175145432800,55.861432861328126,0.5899468373447656,0.2524199328422546,1.4798739617384968
1638063175165577700,55.88157763671875,0.6261468624949454,0.45055882492065424,1.012661158332601
1638063175185721600,55.9017216796875,0.6441624116569757,0.3615209435522556,0.5466108959000557
1638063175205866500,55.921866455078124,0.4936737440258264,0.26130174295604225,0.2931174155421555
1638063175226011600,55.94201171875,0.44633740783333775,0.3100602209061384,0.2634478150740266
1638063175246156800,55.96215673828125,0.7072802543491125,0.35027766500413415,0.12277874986343085
1638063175266301700,55.9823017578125,0.9729583126932382,0.4709089545100927,0.0032614860139787197
1638063175286445600,56.00244555664062,0.8935925150334835,0.2618453483134508,0.20882950517982243
1638063175306590700,56.0225908203125,0.5636679022282362,-0.06625438715219498,0.3077534052684903
1638063175326735600,56.04273559570313,0.4029167837798595,-0.041352001085877416,0.04485211816132068
1638063175346880800,56.062880859375,-0.000412087932229042,0.0806622672110796,0.12671104781106113
1638063175367025700,56.083025634765626,-0.7846966715067625,-0.3199778038084507,0.48927967378534376
1638063175387170800,56.1031708984375,-1.2259399710714816,-0.6539741960972547,0.5483487525433302
1638063175407314700,56.12331469726563,-1.1814946801453827,-0.322491247934103,-0.20595219617784022
1638063175427459800,56.1434599609375,-1.0642723223000765,-0.7286603115081787,-0.6051245327323674
1638063175447600600,56.1636005859375,-1.1054472132533788,-1.0296861620873212,-1.12673403917104
1638063175467745500,56.18374560546875,-1.9705629908651112,-0.6972825919479131,-1.3439368204206228
1638063175487890400,56.20389038085938,-2.4481103604763743,-0.47091129259765147,-1.270434361836314
1638063175508035600,56.22403564453125,-2.354578674820065,-0.07239128247201443,-1.0305183751277625
1638063175528179700,56.2441796875,-1.8351169940650462,0.23017653685212133,-0.7346672968380152
1638063175548324600,56.26432470703125,-1.0002607456386088,0.4738894316256046,-0.6195543323621153
1638063175568469500,56.284469482421876,-0.221734287199378,1.050033953589201,-0.7663761480487883
1638063175588614400,56.304614501953125,0.16728139699995517,1.1243296083778143,-0.7222884383887052
1638063175608759600,56.324759521484374,0.25559797835648057,0.805587483844161,-0.44820378622710705
1638063175628904700,56.34490478515625,0.17590777104794977,0.7518325127810239,-0.09049962448403238
1638063175649049600,56.36504956054687,-0.18596037850677966,0.8368611585080623,0.28854762340858575
1638063175669193500,56.385193359375,-0.29722938090562817,0.7839186728715896,0.5478264822348952
1638063175689338600,56.40533862304687,-0.1455517957508564,0.7525777781903743,0.706416404061392
1638063175709483500,56.4254833984375,0.47539106836020945,0.7248164955615997,0.6203061736427247
1638063175729628700,56.44562866210938,1.1440852792054415,0.6563210514843464,0.4381678376421332
1638063175749773600,56.46577368164063,1.6787977205842732,0.5801309612512588,0.35553375890143213
1638063175769918700,56.485918701171876,1.95131819216907,0.45489422377645966,0.2979751577716321
1638063175790063600,56.506063720703125,2.043645178210735,0.5300426960021257,0.20916443622261285
1638063175810207500,56.52620751953125,2.0395476797640324,0.6828507464915513,0.16952201553359628
1638063175830352600,56.5463525390625,1.8645622842580079,0.6904986308962107,0.371760524950549
1638063175850497500,56.56649755859375,1.7432909432828425,0.483174561843276,0.679809113773331
1638063175870642700,56.586642578125,1.5400708024173975,0.3232803524851799,0.8044626445326953
1638063175890787600,56.60678759765625,1.3294085288524626,0.04172083439826965,0.8140511416111141
1638063175910932500,56.62693237304688,1.051885718935728,-0.35836803247928617,0.6442558620940894
1638063175931077400,56.647077392578126,0.6356482658118009,-0.5797931075990199,0.37073615033887325
1638063175951221500,56.66722143554688,-0.10725450606048106,-0.6567044978439808,0.29992059275098143
1638063175971366700,56.68736669921875,-0.6849158623278141,-0.5952677401065826,0.1296508275900036
1638063175991511600,56.707511474609376,-1.2445581623017787,-0.7027285823941231,0.0539773816421628
1638063176011656400,56.727656494140625,-1.3692097933650016,-1.021208256599307,0.14717457464709877
1638063176031801300,56.74780126953125,-1.2736077311754226,-0.5639782833516598,-0.037736514002457255
1638063176051946800,56.76794677734375,-1.5239917742758988,-0.6437357106775045,1.0058400070756672
1638063176072091600,56.78809155273437,-2.774990783280134,-1.6802362289547919,2.504259240938723
1638063176092236500,56.80823657226563,-2.3549311415195464,-1.8335615813165902,2.107444135034829
1638063176112381400,56.82838134765625,-2.2531208723396063,-0.8634259248286485,1.1843743272349239
1638063176132525600,56.84852563476562,-2.730622064721584,-0.3815641991496086,0.7777018441833555
