time,seconds_elapsed,z,y,x
1638062774835822000,0.012822021484375,-3.4329730459749697,1.3675357226729392,-0.2109626447509974
1638062774855968000,0.032968017578125,-1.9963287157624958,1.3205074295163153,-0.014298428335040806
1638062774876115200,0.053115234375,-1.3693068239986896,0.9152347302600741,0.7455565012514591
1638062774896261000,0.07326123046875,-0.8189432245016097,1.1496169021084903,0.04992898303419351
1638062774916407000,0.093406982421875,0.4640782317072153,1.9880337656259535,-0.8816539476975798
1638062774936553000,0.113552978515625,2.3371985009521246,2.759302800282836,-1.3385998433068393
1638062774956700000,0.133699951171875,2.5531916141510007,2.3069424788981676,-0.9183996970970183
1638062774976845800,0.153845703125,2.1340023254841567,1.1697557270348071,-0.636812779546529
1638062774996991700,0.17399169921875,3.3845459919363257,-0.011490531307458876,-1.24409419805184
1638062775017137700,0.1941376953125,3.9267151790618895,-4.541903425168991,3.7046152734205124
1638062775037284900,0.214284912109375,3.5669138989090916,-3.239147925442457,3.6950615553945303
1638062775057430800,0.2344306640625,0.7666448819875716,0.07114946571737528,-0.3799545354632661
1638062775077576700,0.25457666015625,0.6674082626879215,-0.7298620885133743,-1.5576790859527885
1638062775097723000,0.274722900390625,1.2809744605511426,-0.2877531120300293,-1.336241589742899
1638062775117869800,0.294869873046875,0.9108370798230171,-1.2506503416970371,0.5442636386541649
1638062775138015700,0.315015625,0.7147510286211967,-2.197493385402858,0.2497308764213696
1638062775158161700,0.33516162109375,-0.33657179573476315,-0.4929059745237231,-1.0642217611566185
1638062775178308600,0.35530859375,-0.33969138906002044,0.6714376643344759,-0.1250279535623267
1638062775198454800,0.375454833984375,-1.2504291001617909,-0.15576894612163306,-0.2262290048027411
1638062775218600700,0.3956005859375,0.35165538309812544,-0.6138681034192442,-0.06862151814233511
1638062775238746600,0.41574658203125,0.7267658760637045,-0.8889864825427531,0.12026610945537686
1638062775258893800,0.435893798828125,-0.7939864778995513,-0.4842702481254935,-0.08056695361044257
1638062775279039700,0.456039794921875,-2.523283382621407,-0.6396291521415114,-0.4269862992186099
1638062775299185700,0.476185546875,-2.7463755141705275,-0.686042528270185,-1.3294706343032419
1638062775319331600,0.49633154296875,-2.0017443110704423,-1.3910311645507811,-1.5918864759810267
1638062775339478800,0.516478759765625,-1.9617150830209253,-1.682809586574137,-1.8681781366676091
1638062775359624700,0.536624755859375,-2.0589380244106055,-1.4016519272863863,-1.4664756971135735
1638062775379771000,0.55677099609375,-1.9207792615205048,-0.8802396969854831,-0.6632469782900065
1638062775399916500,0.57691650390625,-1.8582967941224573,0.1988777277469635,-0.0999590152900666
1638062775420063700,0.597063720703125,-1.680581096869707,0.9996920058399438,-0.1651868724061176
1638062775440209700,0.617209716796875,-0.8172036873579025,1.1989441198572515,-0.41378235158938914
1638062775460355800,0.63735595703125,0.32278058626949785,1.204217676346004,-0.23109544179532676
1638062775480501800,0.657501708984375,0.8368553132891654,1.34149877961874,-0.10859521661233157
1638062775500648700,0.677648681640625,0.6738198832958936,1.3061650159090756,0.23367015112154185
1638062775520794600,0.697794677734375,0.8551672150492667,1.1320572800204156,0.1839765112131834
1638062775540940800,0.71794091796875,1.4949018733918666,0.9366691479548811,0.2465458531770855
1638062775561087700,0.738087646484375,1.9851988344609737,0.3679766955628991,0.7709094075642525
1638062775581233700,0.758233642578125,1.8437942215174437,0.3221463800191879,1.128867836329341
1638062775601379600,0.778379638671875,1.592494817137718,0.3017161709308624,0.9726079648856073
1638062775621525800,0.79852587890625,1.6325936032921076,0.24312603479623793,0.337123840126954
1638062775641673000,0.8186728515625,1.7962585633605717,0.14313479773700236,-0.2418970044579357
1638062775661818600,0.838818603515625,2.1994944960922003,0.13053221353441477,-0.32051275093536824
1638062775681964500,0.858964599609375,2.6090660615861414,-0.021926877386868,0.55762504186742
1638062775702110700,0.87911083984375,2.418871406510472,-0.032842823676764964,0.8631534645628184
1638062775722258000,0.8992578125,2.145116424694657,-0.23337737872004508,0.554983806643635
1638062775742403800,0.91940380859375,1.522089155524969,-0.2795487627863884,-0.007447028070315718
1638062775762549800,0.9395498046875,1.1771774014681577,-0.5410404753565788,-0.008654248435609042
1638062775782696700,0.95969677734375,0.7635048303961753,-0.8112339652985334,0.7447097482290118
1638062775802843000,0.9798427734375,0.046157355540990826,-0.7252396894097328,0.7075038339719176
1638062775822988800,0.99998876953125,-0.4586965386688709,-0.6065314769208431,0.12506163663621991
1638062775843134700,1.020134765625,-0.7232610828131437,-0.6377098745167255,-0.2788873397355899
1638062775863281700,1.04028173828125,-0.6830997528165579,-0.7620131305336951,-0.4996074449237436
1638062775883427800,1.060427734375,-0.3674257836818695,-1.1995371173143385,0.7730440084401518
1638062775903573800,1.08057373046875,-1.2635802581578492,-1.2402081503987312,1.5527864916056393
1638062775923721000,1.100720947265625,-2.4217618672549723,-1.193536415594816,1.8485671350076793
1638062775943866600,1.12086669921875,-3.0660464439868926,-0.8013257347464561,1.5227747997015715
1638062775964016400,1.141016357421875,-3.4442513958364724,-0.35679157694280145,0.9763589879821986
1638062775984162600,1.16116259765625,-3.2371547057986256,0.17576631675064563,0.11387352234143763
1638062776004309500,1.1813095703125,-2.5276643741846083,0.014089900150895118,0.3832525540953502
1638062776024455400,1.201455322265625,-1.4296733221560716,0.20929332329928874,0.2981238455273211
1638062776044601300,1.221601318359375,-1.7370950112521648,0.8493202425867319,-0.6718428841345012
1638062776064748500,1.24174853515625,-1.6996867793560027,0.810537215206027,-0.7740577885925769
1638062776084894500,1.26189453125,-0.6781219644039869,0.5791378585606813,-0.24928766269851474
1638062776105040600,1.28204052734375,0.6723521488308906,0.5091401932269335,0.4062208668265492
1638062776125186600,1.3021865234375,1.1293155800968409,0.2679682151079178,-0.027515235445834695
1638062776145333500,1.32233349609375,0.7134060437530279,0.1304974344819784,-0.5222471102224663
1638062776165479400,1.3424794921875,-0.48844928737580773,-0.7493471257060765,-0.27564985565170647
1638062776185625600,1.36262548828125,1.1285106934547424,0.7539800462037325,0.5535207483537495
1638062776205772300,1.382772216796875,2.24593359118402,1.1298533402353526,0.9261630976401269
1638062776225918500,1.40291845703125,2.841776500830054,1.2331465414494276,1.5851944309964776
1638062776246064400,1.423064453125,1.18118254545629,0.39188860928714275,1.913751554840803
1638062776266210600,1.44321044921875,0.04054185374677181,0.5928773378387093,2.520999071076512
1638062776286357500,1.463357421875,-0.29329204145669935,1.9714552635297178,2.145083106946945
1638062776306503400,1.48350341796875,1.1919991230249405,1.0488470818921922,3.7495284741193053
1638062776326649300,1.5036494140625,3.8573373991921542,-2.587274208755791,7.939934337100386
1638062776346796500,1.523796630859375,5.128037426227331,-2.7284897288680074,5.89865939515233
1638062776366942500,1.5439423828125,-0.8788871133327484,2.3151437594018875,2.609934661114216
1638062776387088600,1.564088623046875,2.2659875143058597,1.4299492164880037,-1.2611772886693478
1638062776407235300,1.5842353515625,0.55978141618371,1.4829438707031308,-1.3985340875267982
1638062776427381500,1.604381591796875,-1.566890420281887,0.36455695024728774,-0.03734744161963462
1638062776447527400,1.62452734375,-1.4362942016005515,0.14571400057524442,2.77578222591877
1638062776467673600,1.644673583984375,-2.227076330500841,0.4079854653462767,4.749428569751978
1638062776487820300,1.6648203125,3.155274879491329,-0.2079921775728464,5.044274270391464
1638062776507966500,1.684966552734375,5.798323874700069,-0.9191016348212957,2.660481776046753
1638062776528112400,1.7051123046875,-1.0256912472322584,-2.2833295481204985,-3.0731875479131934
1638062776548259600,1.725259521484375,1.7835230004280804,-0.3128805390238762,-8.864397791215778
1638062776568405500,1.745405517578125,-1.2742349231630563,5.571430597302317,2.7975305318683383
1638062776588551400,1.765551513671875,-1.179481879018247,4.244114656814933,2.0150597197175024
1638062776608698600,1.78569873046875,1.6787883682340383,3.995217637401819,4.077199170517921
1638062776628844500,1.805844482421875,3.3833453839749095,3.430745433053374,5.392884294444323
1638062776648990500,1.825990478515625,0.7285469142615795,4.268539488497376,4.5493882279664275
1638062776669136600,1.84613671875,-1.3856234602883457,4.092497861936688,4.501609408703446
1638062776689283600,1.86628369140625,-0.6089025899663567,3.602922785401344,4.818079496651888
1638062776709429500,1.886429443359375,-0.07453764685094356,1.944973791578412,4.218426381067931
1638062776729575400,1.906575439453125,2.9716844449862836,-0.23344342969357967,3.182973618277907
1638062776749722400,1.926722412109375,6.954466086924076,-3.863009307348728,1.5010356999717651
1638062776769868300,1.946868408203125,3.408277872918546,-4.300360860171914,-1.2972173009522259
1638062776790014500,1.967014404296875,0.5042985984146595,-1.686235761630535,-2.9318425562024113
1638062776810161700,1.98716162109375,1.123504701860994,-18.347344829404353,-3.804699449460208
1638062776830307600,2.0073076171875,-2.7438556403040884,0.4253600862562656,-5.4264113009929655
1638062776850453500,2.02745361328125,-0.017802052541822194,-0.04468962107598781,-5.906078146976232
1638062776870600400,2.047600341796875,-4.814405192053318,-3.9295705684930082,-5.457821753779053
1638062776890746600,2.06774658203125,-5.867900684273242,-1.3500281230330466,-5.063094706195592
1638062776910892500,2.087892578125,-1.4038333629786968,4.872539985635877,-4.7854888941705225
1638062776931039500,2.10803955078125,0.09481865672692656,3.5370541826963424,-2.3310453851498663
1638062776951182000,2.12818212890625,-4.273224431443214,0.33391631278991696,0.7348009331550449
1638062776971328300,2.148328369140625,-6.379815602910519,-1.5005267275363205,1.2419301518857477
1638062776991474200,2.16847412109375,-4.202575608724356,-4.910343354329466,-0.6017792408924549
1638062777011621000,2.18862109375,-1.7235984008193015,-10.805569852423668,-2.146209480628371
1638062777031767000,2.20876708984375,-2.818410238289833,0.5618968009024858,-0.46065651363022625
1638062777051913200,2.228913330078125,-4.065639665627479,1.2347668361276387,0.7668216267939657
1638062777072060200,2.24906005859375,-2.744354821997881,-5.404250907111168,1.2262502060644327
1638062777092206300,2.269206298828125,1.264590750374645,0.4449807325273752,0.9393034419812262
1638062777112352300,2.289352294921875,6.870353386998176,7.732892007598281,2.848865290047228
1638062777132499200,2.309499267578125,5.652000510054826,8.099695275467633,3.327353447639942
1638062777152645000,2.32964501953125,1.1347732609808445,-3.9253427216649053,2.1842652166478334
1638062777172791300,2.349791259765625,0.011809095737338066,0.0678086308568716,3.1880309016674757
1638062777192938000,2.36993798828125,0.0004696633383631706,1.2872931421786546,4.080456711009145
1638062777213084200,2.390084228515625,0.6115455056905746,3.455126425594091,3.8240368948757646
1638062777233230000,2.41022998046875,1.8170275028839706,2.188440602636337,2.734465880668163
1638062777253377300,2.430377197265625,10.224966597485542,-0.46275078249573703,1.213508213391155
1638062777273523200,2.450523193359375,10.866969200760126,-0.6663280662357807,0.7101014492496848
1638062777293669000,2.470669189453125,6.415847285756469,-1.7088427302360534,1.1725970879405736
1638062777313816300,2.49081640625,-0.04324760557413101,-6.460474947512149,1.1185863885506986
1638062777333962200,2.510962158203125,-4.30053446317315,-10.331515585625171,1.6848738256275653
1638062777354109200,2.531109130859375,1.779803103122115,-2.129592692348361,1.7357213848114013
1638062777374255000,2.551255126953125,3.59903220770359,-2.5953748053640124,1.3117431083023547
1638062777394401300,2.5714013671875,2.6805145102500916,-1.9721920533716677,2.1962395859494803
1638062777414548200,2.59154833984375,0.5482540599972009,-2.6486913850098848,0.3537880112126469
1638062777434694400,2.6116943359375,-0.21409809323251247,-2.666717455565929,-0.8996006694070995
1638062777454840000,2.631840087890625,-1.1506634885519742,0.8088684052109718,0.04624737191200256
1638062777474987300,2.6519873046875,-2.3733944344490765,2.4866443815320727,1.2667824152000247
1638062777495133200,2.67213330078125,-4.45975296522677,-0.17097148368954657,0.48934404425844547
1638062777515279400,2.692279296875,-3.6708231861948963,-0.6258773979037999,-0.1919566963121295
1638062777535426000,2.712426025390625,-1.30889824026525,-0.5134715004295111,0.8098558088131248
1638062777555572200,2.732572265625,-2.333708320748806,0.17729074983894824,0.5374287146002054
1638062777575719200,2.75271923828125,0.487478981038928,-5.586987647396326,0.03063201575949788
1638062777595865300,2.772865234375,1.486247442293167,-5.012561619788408,-1.5625601359926162
1638062777616011300,2.79301123046875,-0.8766133231818676,-3.288762727960944,-1.5168002553366124
1638062777636158200,2.813158203125,1.7299726120263337,-1.895092447078228,-0.6355638754639774
1638062777656304000,2.83330419921875,-0.13234686174094676,-0.2357248186290264,-2.140111309883743
1638062777676450300,2.8534501953125,-0.3429997829556465,0.6523983250826597,-2.0817016448825596
1638062777696597000,2.873596923828125,0.0842085615158081,-0.487331681522727,-1.8366759139448403
1638062777716743200,2.8937431640625,0.09700140759348869,-0.9614642742544413,-1.5420594920165835
1638062777736890400,2.913890380859375,-0.31928163823783395,-2.238881919106841,-2.3722777053788304
1638062777757036300,2.934036376953125,0.5406809943944215,-4.573407985979318,-1.501350318878889
1638062777777182200,2.95418212890625,2.419787936833501,-3.733728847441077,-1.3116770573288201
1638062777797329200,2.9743291015625,3.638106911507249,-1.6706489009201526,-0.24683621442578732
1638062777817475300,2.994475341796875,1.350775142008066,1.0489204393893479,0.7318716017048805
1638062777837622300,3.014622314453125,0.9455833990335464,2.4989713636636735,1.4755631128020583
1638062777857768200,3.034768310546875,2.10771754514873,1.6081997512698172,3.0600521720081564
1638062777877914000,3.0549140625,2.223995315620303,2.915817304074764,3.5419741034418344
1638062777898061300,3.075061279296875,2.3731892672657966,0.6470920353680849,3.0666575616225598
1638062777918207200,3.095207275390625,1.879920596909523,-2.502682493141293,3.229991390040517
1638062777938354200,3.115354248046875,2.592231831163168,-2.6977947308748957,2.669399534256756
1638062777958500400,3.135500244140625,1.6317407858550548,-0.6238169582426548,0.9967320600558072
1638062777978646300,3.155646240234375,-2.578732882642746,3.3433950663805008,-0.664111851491034
1638062777998793500,3.17579345703125,-4.109430876559019,3.426217141973972,-0.8432109659262002
1638062778018939100,3.195939208984375,-3.6958810550838708,5.046957225865126,-1.5622583765670657
1638062778039086300,3.21608642578125,-7.023730761808157,8.624633926329016,-2.8841341718271374
1638062778059232500,3.236232421875,-7.458828982746601,5.7049628694355485,-1.5955825540199875
1638062778079379200,3.256379150390625,-6.825563812679052,4.00496921608746,-0.773276282826066
1638062778099525400,3.276525390625,-5.8296694455564015,4.094887387421727,0.6338001537270843
1638062778119671300,3.29667138671875,-6.335877092462778,2.9363872138947245,-0.06206629237916786
1638062778139818500,3.316818603515625,-1.6597206796705721,2.46275906355381,-2.0936878507524725
1638062778159964400,3.33696435546875,-0.9797615629673003,1.2093494862765073,-0.9680551969520748
1638062778180111400,3.357111328125,-2.470194766512513,0.9282125775158405,0.46597208262979983
1638062778200257300,3.37725732421875,-3.225487064358592,-1.16672907269001,0.36079767077900465
1638062778220404500,3.397404541015625,-2.551324651235342,-2.1515940962761637,-1.119569700499624
1638062778240550400,3.41755029296875,0.7137748770654201,-3.5061546020418404,-1.737484010569751
1638062778260697300,3.437697265625,3.102588414442539,-4.005425727683305,-1.2563006225436926
1638062778280843300,3.45784326171875,2.8191479049146175,-5.449427434921264,-1.8742972040697932
1638062778300989400,3.477989501953125,2.6040941183924673,-5.737848070949315,-2.1276237303629517
1638062778321136400,3.498136474609375,0.6590262187898158,-5.289029952216148,-0.6814151607304811
1638062778341282300,3.5182822265625,0.08646481600999832,-4.940069215029478,0.8624860866952687
1638062778361429500,3.538429443359375,-1.7978607378602027,-2.8133529549002647,1.1691922479331494
1638062778381575400,3.558575439453125,-0.9926824193388223,-2.985690466246009,1.8403798830293119
1638062778401722400,3.578722412109375,1.1430366469353437,-1.083439964106679,0.7639883761294186
1638062778421868300,3.598868408203125,4.108149604576826,1.5841443374216555,1.1926586098469794
1638062778442015500,3.619015380859375,4.462696032941341,2.1135189249038695,2.6093685516640543
1638062778462161400,3.639161376953125,0.8573118258625269,1.4107675461560487,3.211603792695701
1638062778482307300,3.659307373046875,-2.21920749682188,2.047355723166466,4.004582847118377
1638062778502454300,3.679454345703125,-1.7079010654717683,2.5871289550662038,3.3764915725573896
1638062778522600400,3.699600341796875,0.23730828842818735,2.6896353898167606,2.807245870196819
1638062778542747100,3.7197470703125,2.5395295840233563,2.0861217994123695,2.7998931693464515
1638062778562893300,3.739893310546875,4.787331891688704,1.252843760088086,2.5994945156425238
1638062778583040500,3.76004052734375,3.1508126393854616,-0.4627876073747873,2.5350138601645824
1638062778603186400,3.7801865234375,2.3410873250842092,-0.5290969395846128,2.6053543475866316
1638062778623333400,3.80033349609375,1.5057576139271258,-0.17209610380530357,1.9555939697921274
1638062778643479300,3.820479248046875,0.14342296702861784,1.9975942056536673,1.2605704088173806
1638062778663626500,3.84062646484375,-1.6511334685891865,1.9813105948507785,-0.02058846838995814
1638062778683772400,3.8607724609375,-1.65737499332726,2.987314268055558,-1.1414838645353913
1638062778703919400,3.88091943359375,-1.4584464121758938,2.5886545571982857,-1.8671721744954586
1638062778724065300,3.901065185546875,-0.9832371301233768,1.000322120437026,-2.4593466247618196
1638062778744212500,3.92121240234375,-1.776778202342987,0.522645571488142,-2.085942058931291
1638062778764358400,3.9413583984375,-0.6889923179864883,-0.8273755372822285,-1.6151095306582748
1638062778784504300,3.96150439453125,-1.5785995627760887,-0.9747492877632379,-2.141407633304596
1638062778804651300,3.9816513671875,-2.299555875778198,-1.307811029550433,-2.132827728746831
1638062778824797400,4.00179736328125,-1.3705249676167963,-1.2851596372812986,-1.3101546700671314
1638062778844944400,4.0219443359375,-1.0857347970455884,-1.4013053058058023,-1.6805340428575872
1638062778865090300,4.04209033203125,0.2535503981769085,0.4568970880314707,-2.4630787970274683
1638062778885237500,4.062237548828125,-1.1327531533300876,1.5667963122576474,-2.785679058293998
1638062778905383400,4.082383544921875,1.2699620681494475,0.8714183848872781,-1.7957295710504053
1638062778925530400,4.1025302734375,1.371536775007844,-0.3976464421615004,-1.4693497912451623
1638062778945676300,4.12267626953125,0.6244219383984804,-2.142257820393145,-0.9046256579622626
1638062778965822700,4.14282275390625,-1.172163957220316,-2.4375842902868983,0.0910734788492322
1638062778985968600,4.16296875,3.46939635848701,-5.729750104689598,-0.5415501784443855
1638062779006115600,4.183115478515625,3.2577450738847253,-5.58265400210619,-0.32013708602339025
1638062779026261800,4.20326171875,4.073192857486009,-6.119359078606963,-1.945031366984546
1638062779046408700,4.22340869140625,3.3286803123295305,-4.231126580426096,-2.0525126675382257
1638062779066555000,4.243554931640625,4.1986499597132205,-2.886001427003741,-1.333139824335277
1638062779086701600,4.26370166015625,1.8165280289292334,-0.8296358834296464,0.09290624723434447
1638062779106847700,4.28384765625,1.3916852445453405,0.08914660243988036,0.3205541423916817
1638062779126994700,4.30399462890625,-1.3175602701485156,-1.4172785354852675,-0.0009916413858532904
1638062779147140900,4.324140869140625,-3.0408015280932186,0.9317430897295474,-2.0912147386372086
1638062779167287600,4.34428759765625,-2.486030049026012,6.031562721732258,-0.48191608621478077
1638062779187433700,4.364433837890625,2.896477228310704,9.524569672909378,2.324043251302838
1638062779207581000,4.384580810546875,-0.6320937882006168,2.182633377662301,4.052537022948265
1638062779227726600,4.4047265625,-2.9803789158344265,-5.269449637955427,5.800722752535343
1638062779247873800,4.424873779296875,2.123055399534106,-4.016042398765683,8.520362819993496
1638062779268019700,4.445019775390625,2.9162247158318757,-2.0598720903903245,5.965141745841502
1638062779288166700,4.465166748046875,0.39701486625969407,0.7497878552109003,3.6935651793569324
1638062779308312600,4.4853125,-1.574673329243064,2.6633827581852674,2.5700018791764974
1638062779328459800,4.505459716796875,-2.8392800078392026,1.4122633376717566,0.327886677236855
1638062779348605700,4.525605712890625,-1.6795973465293645,1.6371464442908763,-1.461097803467512
1638062779368752600,4.545752685546875,-2.643621826660633,4.704264901423454,-1.6112188068300484
1638062779388898600,4.565898681640625,-3.5003444544583555,4.734214634007215,-2.6789532522827386
1638062779409045800,4.586045654296875,-2.7806775967448947,2.0001807150155306,-3.767485571092367
1638062779429191700,4.606191650390625,-4.007782519942522,1.1924351763546466,-4.438723621201515
1638062779449338600,4.626338623046875,-4.555152782842517,0.3711328215062618,-5.205971729779243
1638062779469484800,4.64648486328125,-4.564610931539535,1.0074848516732453,-3.6599405576527118
1638062779489631700,4.6666318359375,-3.318821766138077,-0.07200900515615939,-3.296675985303521
1638062779509777700,4.686777587890625,-1.2394289827197789,-0.7935472096994519,-2.131202465632558
1638062779529924600,4.706924560546875,0.09020166445076465,-4.447528566686809,-0.568220743227005
1638062779550070800,4.72707080078125,2.8629338551491497,-7.118303480949997,0.1632195543885231
1638062779570217700,4.7472177734375,2.531523972222209,-3.340382440561056,-0.17825696452260018
1638062779590363600,4.76736376953125,3.3976404513090848,-3.568369942936301,0.5687228475302457
1638062779610510600,4.787510498046875,4.593934056657552,-5.264430933010578,1.6931351657554505
1638062779630656800,4.80765673828125,1.7452865010142324,-6.535194380670785,0.5029831319019198
1638062779650803700,4.8278037109375,-1.5017372723698614,-3.6888916345879434,0.7774927314773201
1638062779670949600,4.84794970703125,-0.15189619634151458,-2.218562769177556,1.0759221358224749
1638062779691096800,4.868096923828125,3.6066344994008537,-0.6783581112474203,1.143390574939549
1638062779711242800,4.88824267578125,4.360251557511091,2.1752076115757224,1.4053002206608651
1638062779731389700,4.9083896484375,1.489530117225647,2.4075334354162217,2.4824881386354565
1638062779751535600,4.92853564453125,2.0005589006781577,1.265464172208309,2.6703523049369453
1638062779771682800,4.948682861328125,-1.356929572984576,2.2455594971746207,2.6370769350618124
1638062779791828700,4.968828857421875,-1.9614204839885234,3.0384505810528992,1.6052856173887848
1638062779811975700,4.9889755859375,-1.6734236263304947,3.592183656983077,0.8919029545113444
1638062779832121600,5.00912158203125,-0.9285171134203671,2.7356419387102124,0.3133472797527909
1638062779852268800,5.029268798828125,1.8411644575357435,2.2768799335896968,0.3316679493412375
1638062779872414500,5.04941455078125,2.141203635165095,2.31063987211138,0.5762380454659461
1638062779892561700,5.069561767578125,-0.4801952537715435,1.3520888549551366,0.3973620722621679
1638062779912707800,5.089707763671875,-1.067439846420288,-0.14849515572637317,-0.5371265167832374
1638062779932854500,5.1098544921875,-1.1367243950486183,1.709315316183865,-2.2946347859889267
1638062779953000700,5.130000732421875,-3.3372201771378514,1.5716893449962137,-2.888623592200875
1638062779973148200,5.150148193359375,-2.325246781873703,0.28590719190239905,-2.8303847537219524
1638062779993294000,5.170294189453125,0.227485982593894,-0.49996699895113705,-1.8849220584586261
1638062780013441000,5.19044091796875,-0.42726621213853355,-0.8982184212684631,-1.8655624012112617
1638062780033587200,5.210587158203125,-1.753728166145086,-1.07919487388283,-1.8675848469495773
1638062780053734100,5.230734130859375,-3.0413071395277975,-0.9941893167704343,-0.9758525728300214
1638062780073881000,5.250881103515625,-1.667805786448717,-1.3805623775064944,-0.36737083862423897
1638062780094027000,5.271027099609375,-0.7667705541938543,-1.53375299757272,0.270541572727263
1638062780114174200,5.29117431640625,-3.406926166048646,1.1843474392279982,0.12968787166476248
1638062780134320000,5.311320068359375,-1.6753578092634678,0.8840925730213522,-1.302964174041152
1638062780154467000,5.331467041015625,1.8534288958251475,1.241631461200118,-2.0895991201341153
1638062780174613000,5.351613037109375,2.940771712589264,0.6138496909797191,-1.5106217128321529
1638062780194760200,5.37176025390625,1.8636966073393821,-1.5788441851869224,-0.5992895429685712
1638062780214906000,5.391906005859375,1.0104045385122298,-3.223023012332618,0.6075830318003893
1638062780235053000,5.412052978515625,1.7544003663182257,-5.157777899974584,1.501381883060932
1638062780255199200,5.43219921875,4.3643379500418895,-5.220719217056035,0.9589911621391772
1638062780275346000,5.452345947265625,4.508572233453393,-3.8421427526697514,-0.672770958764851
1638062780295492000,5.4724921875,4.691789450731873,-2.436666883181035,-1.7484069711223245
1638062780315639000,5.49263916015625,4.631680726727843,-0.6321691915243863,-2.1205530613243577
1638062780335785200,5.51278515625,4.431690069302916,0.1655021123677492,-1.7404434448972343
1638062780355932000,5.532931884765625,1.6590075629651546,0.9082686906397343,-0.8749158716142177
1638062780376078000,5.553078125,-0.9779454534560441,3.7200662327915426,0.35657588836550713
1638062780396225300,5.573225341796875,-1.444476923534274,4.828915947964787,1.7145628614485262
1638062780416371200,5.59337109375,0.10265022713541984,3.170440884441137,3.0301302042141556
1638062780436518100,5.61351806640625,0.9538006077587604,-0.08935936840772628,3.9065488816067573
1638062780456665000,5.6336650390625,2.0021154824703933,-1.1590239051401614,4.454073458285629
1638062780476811300,5.653811279296875,2.025087192735076,-0.2635352010965347,4.3581382186189295
1638062780496958000,5.6739580078125,0.7501561040014028,0.6525736816495656,3.0305820396348833
1638062780517104000,5.694104248046875,-0.7716080573529005,0.6870721635788679,1.815021716019511
1638062780537251300,5.714251220703125,-1.3873866705685853,0.8589858965545892,1.0503855435058473
1638062780557397200,5.734397216796875,-2.318621810775995,1.070966851502657,0.24307693495750426
1638062780577544200,5.754544189453125,-2.830166727057099,2.534499773162603,-1.2738389095827936
1638062780597690000,5.774690185546875,-2.1826146729618308,2.350752394530177,-1.8275246392399072
1638062780617837300,5.79483740234375,-3.094181236103177,1.860056205010414,-2.3987992170795795
1638062780637983000,5.81498291015625,-3.3306717784076927,1.8122347156494856,-2.789721027161181
1638062780658130200,5.835130126953125,-2.7038959703594445,1.9383382990866898,-3.0507775631844996
1638062780678276000,5.855276123046875,-2.1869296135514973,1.3173147709548472,-2.413464579030871
1638062780698423000,5.875423095703125,-2.546978730985522,0.47135260662436484,-1.9578785735979676
1638062780718569000,5.89556884765625,-2.6323154197484255,-0.2897849101185799,-1.9545202030807733
1638062780738716200,5.915716064453125,-1.7083815424650906,-1.344637662166357,-1.907856359322369
1638062780758862000,5.935862060546875,-0.7617167779356241,-2.1900158891290427,-1.095325339950621
1638062780779009000,5.956009033203125,0.9264765475034713,-2.4560160190343856,-0.1949427263855934
1638062780799155200,5.9761552734375,2.837002126035094,-3.190087249675393,0.4925529233023524
1638062780819302100,5.99630224609375,1.9522469974517822,-5.367575665664672,0.9123094904631376
1638062780839449000,6.016448974609375,-0.007178513327240944,-5.00043512866497,0.6865355724841355
1638062780859595000,6.036594970703125,-0.18716566264331339,-2.7209640095382928,1.2827011382132767
1638062780879742200,6.0567421875,0.688269264408946,-4.3992233854621645,1.447996037571132
1638062780899888000,6.07688818359375,-0.32395255265831946,-0.5011228909879922,0.5245382533669471
1638062780920035000,6.09703515625,1.8232471080511807,-0.6401292106181383,0.03894084829092025
1638062780940181000,6.117180908203125,3.994658249953389,0.8633078514069318,0.028295243375003335
1638062780960327700,6.13732763671875,2.9608132146209476,1.6101812804758548,0.3456584807708859
1638062780980473900,6.157473876953125,-0.37652562046051025,0.5537573335886001,0.9847451965987681
1638062781000620800,6.177620849609375,0.3025876930683851,-0.5641583160936832,1.4368459902644157
1638062781020766700,6.1977666015625,-0.3283446501374245,1.0651286468684673,1.7963126316353677
1638062781040914000,6.217913818359375,0.7140823355793953,1.8010925593882798,1.5348349475905299
1638062781061059800,6.238059814453125,0.9633715691804885,1.398873694744706,1.2446890952050684
1638062781081206800,6.258206787109375,2.1464432893842456,1.5309849941641092,0.5059348213143646
1638062781101352700,6.278352783203125,0.9180477418541908,3.5640444809526204,0.06412044386342168
1638062781121500000,6.2985,-0.9237479993224144,4.272507223084569,-0.2481274963453412
1638062781141646600,6.318646484375,-0.42839024773240086,4.920485978159308,0.05581511846333742
1638062781161792800,6.338792724609375,1.8202946879863737,4.546069897198676,0.06464636743366718
1638062781181940000,6.35893994140625,1.8385002067625522,5.558985541749,-0.01163636951893568
1638062781202085600,6.379085693359375,0.39359658224880695,3.344412134468555,0.8257771621748805
1638062781222232800,6.39923291015625,0.09041559946238995,2.7684014680176974,0.90821593753919
1638062781242378800,6.419378662109375,-0.4728998360663652,1.5343325510263441,1.1237990086324512
1638062781262525700,6.439525634765625,-3.3442946455687284,-0.6508347290277481,1.2191754453726111
1638062781282671600,6.459671630859375,-3.315361396551132,-0.5234124642074108,0.12368410120531916
1638062781302818800,6.47981884765625,-5.688136822319031,-1.985992615187168,-0.4874836572140455
1638062781322964700,6.49996484375,-1.9657634816288947,-2.844193498843908,0.20090017348527908
1638062781343111700,6.520111572265625,0.0056003042250871654,-2.5839386345922946,1.1587588244631886
1638062781363259000,6.5402587890625,-0.9137059132575989,-2.7980525099158284,1.038880983673036
1638062781383404800,6.56040478515625,-0.35256548368036744,-1.7979221126586198,-0.7150286765187979
1638062781403551700,6.5805517578125,-1.773529429680109,-0.9805494984745978,0.4716495437443256
1638062781423697700,6.60069775390625,-0.3742863171011209,0.9789566763252019,-1.371266141372919
1638062781443844900,6.620844970703125,-3.246908622571826,0.9080775519818067,0.8971502075150608
1638062781463990800,6.64099072265625,0.6375953082263469,1.0909294430792331,0.8406020986020565
1638062781484137700,6.6611376953125,6.160378486737608,-0.39933658720552917,0.10844430036693811
1638062781504283600,6.68128369140625,5.809322823098301,-2.6555606862574814,-0.21079349872916936
1638062781524430800,6.701430908203125,2.913148961648345,-0.23964403789937494,-1.0495271731108426
1638062781544576800,6.72157666015625,0.5322977814525366,-0.26365619712769983,0.02890738392397761
1638062781564723700,6.7417236328125,0.501009493741393,0.22901275376975536,-0.015152268685400485
1638062781584869600,6.76186962890625,2.260055055516958,-3.0209447349786758,0.5030073895603419
1638062781605016800,6.782016845703125,0.9414332936167716,-4.047514226350188,-1.7298574612140654
1638062781625162800,6.802162841796875,0.28868717800974847,-1.5582500177085399,-1.9324385735236107
1638062781645309700,6.822309814453125,1.2051269001454115,-0.49377311274707314,-2.3296675209254025
1638062781665457000,6.842456787109375,1.644042049023509,-0.022163316491246223,-2.4509816781289873
1638062781685602600,6.8626025390625,3.1338042214393615,0.33475802431106566,-1.6956430569231509
1638062781705749800,6.882749755859375,3.7406975174099206,2.0849019022285935,-1.5463682951264082
1638062781725895700,6.902895751953125,0.4783160158962011,1.4564824186265468,-1.0736334403634071
1638062781746042600,6.923042724609375,-1.6215473086208103,1.5084060826092958,0.8567502464570105
1638062781766188800,6.943188720703125,-1.9808242726385592,1.203012684470415,1.9750342910602687
1638062781786335700,6.963335693359375,-3.098789606681466,1.2839584447979926,3.0366964308619497
1638062781806482000,6.98348193359375,-3.3747610955029725,0.14669453604519367,3.15639248534441
1638062781826628600,7.003628662109375,-2.1544670213639736,-1.5892361076027155,1.9176035540938376
1638062781846775800,7.02377587890625,0.8484130646139383,-1.1340285800933838,-0.1033237424828112
1638062781866921700,7.043921630859375,1.699137913301587,2.316462002393603,-1.3001089307405054
1638062781887068700,7.064068603515625,0.6856786633938551,2.243406118533015,-1.6669707969292997
1638062781907214600,7.084214599609375,-1.2491793923616408,-0.15681319447755812,-0.7190589549481868
1638062781927361800,7.10436181640625,-2.060096546795964,-0.3900783449947834,-0.4915680769834667
1638062781947508000,7.124508056640625,-2.321827913340926,-0.16939911980628966,-0.606742160529457
1638062781967655000,7.144655029296875,-2.7803368204832077,-1.3317536306738853,-2.8904768188521266
1638062781987800800,7.16480078125,-0.624351795771718,0.3722206167429685,-2.4002523384973404
1638062782007948000,7.184947998046875,0.9498223517775535,1.6152829875290393,-0.819153652381897
1638062782028094700,7.2050947265625,-0.9192132785022258,2.1303958254247903,1.5318082932457326
1638062782048241000,7.225240966796875,-1.1997557285010814,-1.2837503550052642,0.5154629665076732
1638062782068387800,7.245387939453125,-1.6837801851719616,0.4104202912777662,1.7967326106131076
1638062782088533800,7.26553369140625,-1.8026853815376758,-0.7877595662087201,0.7518132235586643
1638062782108680700,7.2856806640625,-0.5877805992215871,-0.4117489095330238,0.06343872694326565
1638062782128827000,7.305826904296875,-1.3124649928361176,-0.5854045177400112,-0.4971448907351121
1638062782148973800,7.325973876953125,-2.2330659263044597,-1.5730425131708383,-0.8679987126369029
1638062782169120800,7.346120849609375,-1.7951181611537932,-1.864675681504607,-1.4635096869148314
1638062782189267000,7.366266845703125,-0.5027700736731291,-0.1634147846996784,-1.8993328611269593
1638062782209414000,7.386413818359375,0.5109323373407125,0.4766483749449253,-1.2445029249832034
1638062782229559800,7.406559814453125,0.6212415547966956,0.5608955149054526,-0.29051351665407416
1638062782249706800,7.426706787109375,1.6313368812292812,-0.9263882846981286,-1.4195166698008774
1638062782269853000,7.44685302734375,1.1496990274339913,-2.6615736629366875,-0.09185542300716042
1638062782289999600,7.46699951171875,0.3591653203368187,-0.9725193367540835,1.158219310759008
1638062782310146800,7.487146728515625,2.1828613411992785,-1.1023989315986633,1.113689118028432
1638062782330293000,7.50729296875,0.9845505508095025,1.324821785584092,1.0564489351980388
1638062782350439700,7.527439697265625,3.4773417645335196,3.886947816818952,1.2507776213385164
1638062782370585900,7.5475859375,2.5582968283355236,2.1461820080995557,1.86362588019073
1638062782390732800,7.56773291015625,0.3076408848047256,2.3777304178267715,2.720942966750264
1638062782410879000,7.58787890625,-1.271779346704483,3.92119378529191,3.632848552587628
1638062782431025700,7.608025634765625,-0.3212421246558428,5.534092508032917,4.153047023184597
1638062782451172900,7.6281728515625,1.1345084725648165,1.7334107697814702,3.402850879433751
1638062782471318800,7.64831884765625,3.9507016193270683,-0.4210919074177742,0.9286015768334269
1638062782491465700,7.6684658203125,5.62122017186582,-0.779303872552514,-0.06322159532755613
1638062782511612000,7.68861181640625,5.10181752782166,0.2903454666107893,0.36342443908601996
1638062782531758800,7.7087587890625,3.330995603534579,1.4022919787555932,1.8629326372295616
1638062782551905000,7.728905029296875,-1.8949585915654896,-5.686087488573789,1.6476725144803523
1638062782572051700,7.7490517578125,-4.020884285838902,-1.148364563959837,3.286704918648302
1638062782592199000,7.769198974609375,0.48173283860236404,-0.44604982306361196,-0.5107946824356914
1638062782612344800,7.7893447265625,1.1326491084337234,1.9078794479370116,-1.372193193089962
1638062782632491800,7.80949169921875,1.6365736128389834,2.7654876263976096,-1.795277151107788
1638062782652637700,7.8296376953125,0.19497195248007773,0.9795464589118957,-0.07583323961943388
1638062782672785000,7.849784912109375,-0.7292123924329876,1.0602712699651717,0.598879500862956
1638062782692930800,7.869930908203125,-0.4126750844672322,1.266771747675538,0.7276756843850016
1638062782713077800,7.890077880859375,0.21434593051373957,-0.42479952976405616,0.2656184371113777
1638062782733224000,7.910223876953125,1.6786597734183073,-1.298452249574661,0.29143910706639287
1638062782753371000,7.930370849609375,-0.6222206289619207,-1.4788573320418594,0.868466257083416
1638062782773516800,7.950516845703125,2.238637588956952,-1.9925000973850489,-2.189147874122858
1638062782793663700,7.970663818359375,1.2981307625353335,1.065062011373043,-0.8479474929288029
1638062782813811000,7.99081103515625,4.213125644311309,7.421411983022093,2.1749992295220495
1638062782833956600,8.01095654296875,-1.4224819493472576,1.4394441900640724,2.2494126654714344
1638062782854103800,8.031103759765625,-1.287439857172966,1.3927104959398506,-0.01371814422905445
1638062782874250000,8.05125,-0.9638181439042091,4.058138496217131,-2.18988057231158
1638062782894396700,8.071396728515625,-0.14421616323292255,2.229417340669036,-1.8168708510175346
1638062782914542800,8.09154296875,-4.223588001614809,0.748587247249484,-1.7520941352024673
1638062782934689800,8.111689697265625,1.2798317202568052,-2.1934394338369367,-3.8169390455693004
1638062782954836700,8.131836669921874,1.4808131422847508,-1.630712611851096,-3.08548471942842
1638062782974982700,8.151982666015625,3.300738412436843,-2.6097037749677896,-0.2702846753567457
1638062782995129900,8.1721298828125,2.7282027286201713,-1.2910288215756416,4.7224765576794745
1638062783015275800,8.19227587890625,0.48807870049774643,0.56539516441226,6.2875231036603445
1638062783035422700,8.212422607421875,-2.435617958649993,-1.9965806446969507,3.4879435303077098
1638062783055569000,8.23256884765625,0.4529413361430168,-1.5801269184738396,1.499049056199193
1638062783075715800,8.2527158203125,0.1893476828575134,-0.6045183835327624,0.8173439726114272
1638062783095862000,8.272862060546874,0.7242687985509634,0.24906711528301237,0.3826967103108763
1638062783116008700,8.2930087890625,-1.181307633140683,-0.034094577303528786,-0.23284400249570605
1638062783136155000,8.31315478515625,1.677999848204851,0.12746201230883597,-1.4459078331202269
1638062783156301800,8.3333017578125,-1.9986726485401392,0.33361645306050774,-2.5872654409274456
1638062783176448800,8.35344873046875,-0.05709960531592369,0.06693710871934891,-2.2386124545156956
1638062783196594700,8.3735947265625,-0.585309825193882,-0.24567864188849925,-0.5291188591554761
1638062783216742000,8.393741943359375,-1.2313397842884064,-2.8300188430190083,0.48560120446830984
1638062783236887800,8.4138876953125,-0.003037175738811493,-1.636384227746725,0.21297581120431422
1638062783257034800,8.43403466796875,1.4696663098484277,0.2130857013195753,-0.07042845796644687
1638062783277181000,8.454180908203124,-1.239410278019309,1.1206740084797144,0.10333061061501503
1638062783297327900,8.474327880859375,2.482578447267413,3.2361312079697844,-1.6927482122644781
1638062783317474800,8.494474853515625,0.2838695485949516,3.2857161998718976,-2.2808614044412967
1638062783337620700,8.514620849609376,-1.354872640454769,1.3391197755277156,-1.4064268866032361
1638062783357768000,8.534767822265625,-1.008686628678441,0.5012871416389942,-0.995562650950253
1638062783377913600,8.55491357421875,-0.9808861830830573,0.47710371749699115,0.299102189040184
1638062783398060800,8.575060791015625,2.2671032204627988,2.592826289924979,0.9580956746041774
1638062783418207000,8.59520703125,-1.9047464106082914,-3.6236627910912036,0.4246943158239126
1638062783438353700,8.615353759765625,0.2619534848630428,-1.793766746544838,-0.7593269601896405
1638062783458499800,8.635499755859374,1.4812556253552436,-1.0066250199735165,-1.832155513910949
1638062783478646800,8.655646728515626,-0.0554869094222784,0.18185235866606234,-1.2099790163516997
1638062783498793700,8.675793701171875,-1.0626210479617118,-0.262428701159358,-0.1646034099623561
1638062783518939600,8.695939697265626,-1.0027619148045777,-0.11302490615546702,0.5901406063511967
1638062783539086800,8.7160869140625,-1.002546810749173,0.6458253764331341,0.5328267737627029
1638062783559232800,8.736232666015624,0.6388093601912259,0.3722872522383928,0.06093494569510221
1638062783579379700,8.756379638671875,0.8558376616567372,-0.46350423121154305,-0.6895236483842134
1638062783599526000,8.77652587890625,-0.808864313557744,0.23251579345464704,-0.9667539050951599
1638062783619672800,8.7966728515625,-0.31621114475131035,0.7962783882290124,-0.5933084227323532
1638062783639819800,8.81681982421875,-0.40896483177244664,1.3206763563424349,0.5723343160256743
1638062783659965700,8.836965576171876,-1.50078917786479,1.0389543411701918,1.1792349185198545
1638062783680113000,8.85711279296875,-0.6380898137450218,1.8886235433250664,0.19051760341972113
1638062783700258800,8.8772587890625,0.8106044352233409,0.033577275431156156,-0.8099848420202732
1638062783720405800,8.89740576171875,0.790064920541644,0.4199702099114656,-0.9729814013078808
1638062783740551700,8.9175517578125,0.5708744726061821,-0.4462649271190166,0.5491261666566133
1638062783760699000,8.937698974609376,-0.011913140633702277,-1.096353221693635,0.9177896754398941
1638062783780845800,8.957845703125,0.7770131312668324,-1.5185750099241733,0.643091275294125
1638062783800991700,8.97799169921875,0.90514325209558,0.4537316097378731,0.10881780985444783
1638062783821139000,8.998138916015625,-1.0490525413364171,1.1974836919158696,0.2366246900781989
1638062783841284900,9.018284912109374,0.5644499925166369,-0.5401005641579628,-0.7039242219194769
1638062783861431800,9.038431884765625,-0.3275660669803619,0.7973392954587936,-1.140182426548004
1638062783881577700,9.05857763671875,-0.6780898157000541,4.38530007404983,-0.8967027560085058
1638062783901725000,9.078724853515626,-0.0786404059946537,3.5081636037766932,-1.2387021297499536
1638062783921870600,9.09887060546875,-0.31016660389006134,-0.536772881039977,-1.2909767991274594
1638062783942017800,9.119017822265626,0.9007669367074966,-0.5760416461110115,-1.0817290685355663
1638062783962165500,9.13916552734375,0.8647451907336712,0.9777373636633158,-0.22712986263260243
1638062783982311400,9.1593115234375,0.19841361736655233,1.0039479097187518,0.877330531540513
1638062784002458600,9.179458740234375,-0.7407645907998085,-0.3875684080004692,1.43249247123003
1638062784022604500,9.1996044921875,-0.9974439346522093,-2.3309061228096484,-0.0513520015746355
1638062784042751500,9.21975146484375,0.8031067729443311,-2.6622826879888772,-0.12378142409995198
1638062784062897700,9.239897705078125,1.2268974179267882,-1.5919927128344773,-0.8001495305739342
1638062784083044600,9.260044677734374,0.27172902894616124,-0.9450134901911019,-0.16656287346705792
1638062784103191600,9.280191650390625,0.3916688290566206,-1.2835416806906461,-0.19911957367882133
1638062784123337500,9.30033740234375,0.7140186226934194,-1.4816086765766143,-0.980851404030621
1638062784143484700,9.320484619140625,1.4749942268729208,-1.143114388346672,-0.020365034897625447
1638062784163630600,9.340630615234375,3.140228117007017,-0.19993103619217872,0.15664748252183197
1638062784183777500,9.360777587890626,-0.555986115553975,0.478303156414628,0.07250833298042417
1638062784203923500,9.38092333984375,-2.9340093788474797,3.5184114415466783,1.0893927350312471
1638062784224070700,9.401070556640626,0.4342103321880102,0.9868091433912515,-0.467035766338557
1638062784244216600,9.421216552734375,-0.04134206421375274,-0.3000526216328144,0.1566740782678127
1638062784264363500,9.441363525390624,-0.3329606195002794,-0.7391220842897892,0.7056685813687741
1638062784284509700,9.461509765625,-0.6096054775387049,0.23714696038663385,0.6199314951114356
1638062784304656400,9.481656494140625,0.1511579451948404,0.21333529216647146,0.29534502846375105
1638062784324803600,9.501803466796876,0.2319686809659004,0.3986111955404281,0.09012275399565696
1638062784344949500,9.521949462890625,-0.32265900571644307,0.1383709443360567,0.14567381469532847
1638062784365096400,9.542096435546876,0.3063642889976501,0.1674929939240217,-0.23118396032899616
1638062784385242400,9.562242431640625,-0.32725393229126926,0.4746469719946384,-0.2688926364764571
1638062784405389600,9.5823896484375,0.04057107984125614,0.0309480959713459,-0.37024654019102454
1638062784425535700,9.60253564453125,0.7351970198005437,-0.27650340374112126,-0.4476419145606458
1638062784445682400,9.622682373046874,-0.03650573009848594,-0.01906768856346607,-0.8829999554790556
1638062784465828600,9.64282861328125,1.1706003611654043,0.13906477181911467,-0.36763285056129097
1638062784485975600,9.6629755859375,0.819341868430376,-0.26090543711483477,-0.9629600657701491
1638062784506122500,9.68312255859375,-1.2653092739075422,0.032004327026009555,-0.6063811086647212
1638062784526268400,9.703268310546875,-0.3246288444846868,0.7431950328171253,-0.4714757946126163
1638062784546415600,9.72341552734375,1.0978835000008345,0.5507914695203304,-0.5517034697987139
1638062784566561500,9.7435615234375,-0.5090577756404876,0.2920838347107172,-0.22331921830326318
1638062784586708500,9.76370849609375,0.31438451384603977,0.14200842405557632,0.3855709505729377
1638062784606854700,9.783854736328125,-0.02357026067972183,0.43241117381155486,0.5744362567409873
1638062784627001600,9.804001708984375,-0.4391635706812143,0.3366816858500242,0.3007819588206708
1638062784647147800,9.824147705078126,1.8262708397865295,4.4046646997332575,-0.05777092870622873
1638062784667294500,9.84429443359375,0.956986836579442,1.4075462460219859,-0.051327305524796245
1638062784687440600,9.864440673828126,2.4600053809314963,1.69392923874259,1.6118505288623273
1638062784707587600,9.884587646484375,-0.16839841833114624,-2.106035875672102,-0.7502309228032827
1638062784727734500,9.904734619140624,-0.5438680999979376,-0.07263385905623436,-0.10456146758422255
1638062784747880400,9.92488037109375,-1.0110206245839595,-0.5532897160768508,-0.6945853156879543
1638062784768027600,9.945027587890625,-0.36172844882309435,0.4404769913673401,-1.1152873470053075
1638062784788173600,9.965173583984376,0.4399927149817347,2.4211837751060723,-0.033413317041099067
1638062784808320500,9.985320556640625,-0.28936814601123334,-0.46706338499784467,-0.9968725645050406
1638062784828466700,10.005466796875,0.05959522152394056,-1.502868322226405,-0.758775756047666
1638062784848613400,10.02561328125,-0.013588964891433715,0.9843734406769276,-0.47675271210223436
1638062784868759600,10.045759521484374,-0.3122238286808133,0.8777139779001474,-0.940649157501757
1638062784888906500,10.065906494140625,0.04619944111704826,2.3860884963274,-0.15467472114413977
1638062784909053400,10.086053466796875,0.9202204097181558,-1.0246014061689377,-0.35715485729724167
1638062784929199400,10.106199462890626,-0.24248539880514144,-0.19906185214221475,-0.6784434514433145
1638062784949346600,10.1263466796875,-0.2749123351573944,-1.3827473203301428,-0.7577960973605513
1638062784969491700,10.14649169921875,-0.028588965624570844,-0.5046978268653154,-0.5238979096367955
1638062784989638700,10.166638671875,0.1959761610865593,1.0228443333685397,-0.19890081636160611
1638062785009784600,10.18678466796875,0.33738808055371045,1.2200953366965055,-0.13662117805927992
1638062785029931500,10.206931640625,0.17276713493466375,2.314354800981283,-0.633348464436829
1638062785050077700,10.22707763671875,0.2131613969042897,-0.8471464056789875,-0.47223114302456376
1638062785070224600,10.247224609375,0.31967443694770337,-1.6638988421380518,-0.6113605045124888
1638062785090371600,10.26737158203125,0.12301321620643138,-0.8933382480114698,-0.08978606938719749
1638062785110517500,10.287517578125,0.3413417866155505,-0.383728683707118,-0.25951135240793227
1638062785130664700,10.307664794921875,0.08245762619525193,1.0868635088145733,0.025509412048757073
1638062785150810600,10.327810546875,0.7604720385715364,1.577190865021944,-0.1866977528706193
1638062785170957600,10.34795751953125,-0.12057371409982443,-1.5559206979781388,-1.1332573034599422
1638062785191104800,10.368104736328124,0.13502367973476648,-0.9201964443206787,-0.3875789293944835
1638062785211250400,10.38825048828125,-0.6361600147262215,1.2152858905881643,0.3083446491599083
1638062785231397600,10.408397705078125,0.020052900208532808,1.4079565803885459,-0.7350313078448176
1638062785251543600,10.42854345703125,0.5533949300169945,0.35609307328462597,-0.6619511663258075
1638062785271690500,10.4486904296875,0.5583620509050786,1.1246756453365088,0.3970353245258331
1638062785291836400,10.46883642578125,4.0090918489754195,5.0009535995811225,2.0890987693965433
1638062785311983600,10.488983642578125,-1.0396107592523098,6.035162792050838,0.9419260455697774
1638062785332129800,10.5091298828125,0.6451951887708157,2.5911878750681874,0.8943959403708577
1638062785352276500,10.5292763671875,2.328741053730249,-3.6900235612273216,-2.0599650293707845
1638062785372423700,10.549423583984375,4.076587760621309,-0.7380746210634708,0.9709399586081504
1638062785392569600,10.569569580078126,-4.060868213441967,-6.234822025564313,-1.8742422590121626
1638062785412716500,10.589716552734375,-5.37974073523283,-1.294058398529887,-2.9297838701069354
1638062785432862500,10.609862548828126,1.0570382793933153,-2.809471145030856,0.00033200843334198
1638062785453009700,10.630009765625,-0.13579378732442854,-3.7777532826066014,-0.1559057242438197
1638062785473155600,10.650155517578124,-0.9350573288440703,-3.2697891474217173,0.08270604799836874
1638062785493302500,10.670302490234375,-0.3140285400152206,0.25283026720881463,-0.09205752145051956
1638062785513448700,10.69044873046875,0.031079047140944747,0.09129588942825793,-0.637742607742548
1638062785533595600,10.710595703125,-0.051732561857439574,-0.3441933766543865,-0.6301710034444927
1638062785553741600,10.730741455078125,0.03792725080158561,0.8381856851100921,-0.7417550631418823
1638062785573888500,10.750888427734376,-1.0894640467017889,-1.5035329236149788,-1.0909005092456936
1638062785594035700,10.77103564453125,-0.1692038712288253,-0.2759831792593002,-1.8748185975953935
1638062785614180600,10.7911806640625,0.17135962449060752,-0.5857412023484706,-1.0393716897994278
1638062785634327600,10.81132763671875,-1.4304828849732876,0.07280103231668472,-0.1083814642637968
1638062785654473500,10.831473388671874,-1.4067559724271297,2.122612916463613,-1.3676140486061572
1638062785674620700,10.85162060546875,2.814385220557451,1.40048872872591,1.7448700291678307
1638062785694766600,10.8717666015625,2.0512579913020135,0.12044307345747947,1.9167422610893845
1638062785714913500,10.89191357421875,0.32820904105901716,0.14890578235387802,-0.5418433161720633
1638062785735060700,10.912060791015625,-0.11491466542482376,0.37601533285081384,-0.3685100717872381
1638062785755206700,10.93220654296875,0.38699090037345885,1.1176058530807496,-0.6053612640976905
1638062785775353600,10.952353515625,1.2191069101810454,1.3792133009850978,-0.24696195969730614
1638062785795499500,10.97249951171875,1.279608432894945,3.1593291233181953,-1.1491744190379976
1638062785815646700,10.992646728515625,0.4968213944017887,2.596819158953428,0.5635691180288791
1638062785835792600,11.012792724609374,-1.0289806441664695,-1.5993161875903605,1.6641938795618711
1638062785855939600,11.032939697265626,-1.3453963715791701,-1.282389003524184,-0.04077420119792223
1638062785876085500,11.05308544921875,-0.24919921723008154,-1.2087246323764322,-0.6967360639810561
1638062785896232700,11.073232666015626,0.02332695344313979,0.011193009665608405,-0.3344236777901649
1638062785916378600,11.093378662109375,1.3137468493402003,0.2815934203565121,-0.15179317435845732
1638062785936525600,11.113525634765624,-0.29900851940736173,-1.337982880452275,-0.2501474578656256
1638062785956671700,11.133671630859375,-0.3649637774825096,0.3547439967632294,-1.6514894424200057
1638062785976819500,11.1538193359375,0.79479560232535,1.4247083932250737,-1.8598564446546135
1638062785996966700,11.173966552734376,0.901758285832405,1.441267313838005,-1.2065353056386112
1638062786017112600,11.194112548828125,0.25774595017060636,-1.8607295742273329,0.552071937784925
1638062786037259500,11.214259521484376,-1.332015496480465,-1.3592448641896246,0.8131798386693
1638062786057405400,11.234405517578125,-0.5825440137423574,-1.3876380149811505,1.4271914422124623
1638062786077552600,11.254552734375,0.14502441087588666,0.27152386176288124,-0.7165805821359157
1638062786097698800,11.27469873046875,0.1368660927310586,-0.4280786975651979,-0.07682550205979496
1638062786117845500,11.294845458984375,0.42665918615609405,-1.150768117970228,-0.34779056089613586
1638062786137991700,11.31499169921875,-0.35881899111717935,-2.564720723903179,0.4960439437558874
1638062786158138600,11.335138671875,-0.5712567499220371,-2.5965947025477885,-0.20798224070072172
1638062786178284500,11.355284423828126,-0.5317338639594614,-0.35783261042833325,-2.4394269955441352
1638062786198431500,11.375431396484375,1.340982354529202,3.9851089158415793,-1.3647154045552015
1638062786218577700,11.39557763671875,1.4744399539910256,3.1229590022981166,-1.041691657179594
1638062786238724400,11.415724365234375,-2.141943201486021,-2.207941421920061,0.2518821544374339
1638062786258871600,11.43587158203125,-0.4205472791470587,-1.243106794449687,0.002533884125482291
1638062786279017700,11.456017822265625,-0.994939550615847,-0.15472820489704608,-1.1210615464925766
1638062786299164400,11.476164306640625,-0.7269092300571501,0.49976855376958845,-2.2750103403255344
1638062786319310600,11.496310546875,-0.25060192363485695,1.1876572944283486,-2.040435568514466
1638062786339457500,11.51645751953125,0.023131723131984472,0.60515726595819,-0.7768126402586698
1638062786359603700,11.536603759765624,-0.6626676440320909,0.054962593287229536,-0.5448608373623341
1638062786379750400,11.55675048828125,0.10518018400445579,-0.459971965432167,-0.6581175064470619
1638062786399896600,11.576896484375,-0.38552740369215605,-1.3936311179161072,0.2485941640090197
1638062786420043500,11.59704345703125,-0.2524475515015423,1.1475398035734892,-1.6055355004966259
1638062786440189700,11.617189697265625,-0.06513444321155548,-2.042266875594854,2.0432751758545638
1638062786460336600,11.637336669921876,-0.15947174616232512,0.9540209725111722,-0.46271118113771076
1638062786480482600,11.657482666015625,-0.018060557347536085,0.9833949510335922,-1.1248965946108103
1638062786500629800,11.677629638671876,-0.6222891641534865,1.3065414480060338,-1.7106902577988803
1638062786520775700,11.697775634765625,-0.008811959747970104,2.6765064436525106,-4.245799833422899
1638062786540922600,11.717922607421874,0.17514599289521574,-0.8017769856452941,-0.6113311322875321
1638062786561068500,11.738068603515625,-0.06402852779626846,-0.5766600702702999,0.7351178170844912
1638062786581215700,11.7582158203125,-1.6206301937758922,0.359858563297987,1.1110139074698089
1638062786601362400,11.778362548828126,-3.067483491052687,-2.352231234911084,1.1757571594066918
1638062786621508600,11.798508544921875,-1.978719117052853,-3.3938094948440787,-0.2701977277256548
1638062786641655800,11.81865576171875,-1.7790251044869423,-0.5806839189589024,-0.4246408320710063
1638062786661801500,11.838801513671875,-1.456065216127783,-0.30803134542703625,-1.0949597945738583
1638062786681948700,11.85894873046875,-1.8574585897326468,-2.0774246982157227,-0.9968445074543356
1638062786702094600,11.879094482421875,-3.2167408633232113,-3.167313692331314,-0.47177200108021494
1638062786722241500,11.899241455078124,-1.2055788816966115,-0.930341406238079,-0.4970984943101182
1638062786742387500,11.919387451171875,0.6004547508230432,-0.04827274025976658,0.3256698779702186
1638062786762534700,11.93953466796875,2.0676117447316646,-0.6291483823984861,0.8146297452166676
1638062786782680600,11.9596806640625,1.4413444707274436,0.31645956655442714,1.138265487010777
1638062786802827500,11.97982763671875,0.14045239025261252,0.09031330813169479,0.9271712517693639
1638062786822973400,11.999973388671876,0.026925416326522827,-1.1136112304866312,-0.08328150979876518
1638062786843120600,12.02012060546875,-0.35366438483297824,-0.9203951817631721,-0.3639198213875294
1638062786863266600,12.0402666015625,-0.18515183860287068,-0.9314987595796584,0.07292750824056565
1638062786883413500,12.06041357421875,0.2241543539531529,-1.023166404929757,0.25509203812833875
1638062786903559700,12.0805595703125,1.0302736065864562,-0.12827449773550031,-0.3969935312107205
1638062786923706600,12.10070654296875,1.413551623916626,0.6534943036258221,-0.43054917933195824
1638062786943853600,12.120853515625,1.6963126267477868,0.539158314871788,-0.21658048463277518
1638062786963999500,12.14099951171875,1.2452771242260932,1.5713596746504306,-0.06925006183683872
1638062786984146700,12.161146728515625,0.8956301583409308,1.45015380012691,0.10573796401768921
1638062787004292600,12.181292724609374,0.4522542306616902,-0.8451315587252378,1.9546116807565093
1638062787024439600,12.201439453125,-0.8660840381219983,1.5219132144361733,0.25895832163505256
1638062787044585500,12.22158544921875,-1.6016571977585554,1.887363314130902,0.6185314190551638
1638062787064732700,12.241732666015626,-1.5470362575158476,3.09734642213583,0.5780632881317287
1638062787084878600,12.261878662109375,-1.2156637839898465,2.3110844010084866,1.0284086894974112
1638062787105025500,12.282025634765626,-0.9286147285759448,1.702533985480666,0.6009083763420582
1638062787125171700,12.302171630859375,-0.965927683404088,1.8257248963415622,-0.7635349332734942
1638062787145318400,12.322318359375,-1.7016262229859829,2.2348376121520994,-1.7221765513226388
1638062787165464600,12.342464599609375,-2.8084885637342927,0.4506009104967117,-1.684834954921901
1638062787185611500,12.362611572265624,-3.8987256406351922,-0.06559212385118007,-1.7279320461094378
1638062787205757700,12.3827578125,-3.838703133609891,0.20763795730769632,-1.4865964018613098
1638062787225904400,12.402904296875,-3.159490159098804,0.7531278132885694,-1.26701023260653
1638062787246050600,12.423050537109376,-3.0315882940679786,0.3117296154230833,-0.8124290203019976
1638062787266197800,12.44319775390625,-2.0546891347944736,-0.07349544432163238,0.9860279298856854
1638062787286343700,12.46334375,-1.0489774302735924,0.6707441291123628,2.2562182538330555
1638062787306490600,12.48349072265625,-0.9772615628451108,-0.849245423784852,2.710570041295886
1638062787326636500,12.503636474609374,-2.8707530044674874,-1.986637927353382,2.8122151830419897
1638062787346783700,12.52378369140625,-4.422364607074856,-1.8618068480700254,0.9657637250140308
1638062787366930400,12.543930419921875,-4.3211166479527945,-0.5066618204146623,0.9943921458661555
1638062787387076600,12.56407666015625,-3.321167452481389,0.18973463634848595,1.705320693589747
1638062787407223600,12.5842236328125,-0.07736439470946789,1.1642822640597819,2.008219936825335
1638062787427369500,12.604369384765626,3.4107962854802607,1.5385036992311476,2.0517028124600647
1638062787447516700,12.6245166015625,3.8373815296173093,1.7991344110578298,1.516311448906362
1638062787467662600,12.64466259765625,2.5582991664230823,1.6348200471699237,0.6414373706072568
1638062787487809500,12.6648095703125,0.15658815355002878,0.8880909950077533,0.8677519713342189
1638062787507955500,12.68495556640625,0.4046779482334852,-0.21125848589241503,-0.46991146790534255
1638062787528102700,12.7051025390625,1.9528131069019437,0.03634498657882213,-0.9254515153046697
1638062787548248600,12.72524853515625,3.1903660666167735,-0.3836754922151565,0.2610561706971377
1638062787568395500,12.7453955078125,4.11064142139256,0.7904320002883672,1.2953349943369625
1638062787588541400,12.76554150390625,5.06479566489458,-1.4337088612824678,-0.46238688108678905
1638062787608688600,12.785688720703124,3.9638060155719517,-0.7974754890590906,-2.1019246409609913
1638062787628834600,12.80583447265625,2.020722567784786,2.500068511250615,-1.3893217302843928
1638062787648981500,12.8259814453125,0.645300329645723,0.7223164954394101,-0.8994567308917641
1638062787669127400,12.84612744140625,-1.957119718054682,-0.6050292556643486,-2.127800548234582
1638062787689274600,12.866274658203125,-3.032805853164196,1.3465870426684616,-0.8415817572891712
1638062787709420800,12.8864208984375,-4.302992085458338,3.2002649448186156,0.6386632297188043
1638062787729567500,12.9065673828125,-3.4089152940392493,2.8134540771871803,-0.027649364953208713
1638062787749713700,12.926713623046876,-1.9118799157500266,1.5170692815363407,-1.1390066607668996
1638062787769860600,12.946860595703125,-2.558323716342449,1.2962579544007777,1.854526627933979
1638062787790006500,12.967006591796874,-0.16421996360272167,-1.910088940680027,-1.57591134660542
1638062787810153500,12.987153564453125,-2.8763071314632893,-2.071370220482349,-2.254033311009407
1638062787830300700,13.00730078125,-3.703950672031939,-0.5308247862905263,-6.545691224765777
1638062787850446300,13.0274462890625,-2.5595094189956784,-1.336487673458457,-4.402045164884627
1638062787870593500,13.047593505859375,-0.18311872534006832,-3.7150960431635376,-0.8875393524743616
1638062787890739700,13.06773974609375,-2.0215715858295558,-3.850114169940352,1.3067840245902538
1638062787910886400,13.087886474609375,-0.18460516450554132,-2.89808875516057,-0.28834501350857317
1638062787931032600,13.108032470703124,-3.338030616737902,-3.8509237327575683,0.20503902685567735
1638062787951179500,13.128179443359375,-2.861353892481327,-3.9590275491237636,-1.692196423600614
1638062787971328800,13.148328857421875,-3.667229837878048,-5.346652704623342,-1.5241250452667474
1638062787991475700,13.168475830078124,-2.5913001032710072,-4.668105208283663,-3.3715696059852838
1638062788011621600,13.18862158203125,-1.9326094000458716,-3.6404490907192226,-4.736716972216963
1638062788031768800,13.208768798828125,-0.7036775536820292,-2.090015299719572,-4.174878038981556
1638062788051915000,13.2289150390625,1.9646506980814038,-0.7035276238173246,-3.0128330324545503
1638062788072061700,13.249061767578125,3.5435482208907603,-1.8295517611533403,-2.222223337511718
1638062788092207900,13.269207763671876,4.5381145542800425,-3.917010362127423,-0.5241036613419652
1638062788112354800,13.289354736328125,3.7879660490632054,-4.3549183797895905,0.8358630873814225
1638062788132501000,13.3095009765625,2.321378416007757,-5.24991666996777,-0.7655334136143326
1638062788152647700,13.329647705078125,-0.1404500886976719,-4.324566496145725,0.42515638037770986
1638062788172793900,13.3497939453125,1.0246382310479878,-4.207856179475784,0.18758213448971509
1638062788192940800,13.36994091796875,0.45794484351873394,-3.998324955767393,0.0011266659423708916
1638062788213086700,13.390086669921875,1.7066636326313018,0.23784429500102997,1.6492103915721177
1638062788233234000,13.41023388671875,4.284866938441992,2.691738499575853,1.320607090498507
1638062788253379800,13.4303798828125,4.915203653842211,3.9441719252973795,-1.5450345623046158
1638062788273526800,13.45052685546875,9.436950426167249,6.594625643804669,0.581117378472723
1638062788293673700,13.470673828125,4.878284666767716,5.416775457641482,2.3679428910449145
1638062788313820000,13.49081982421875,4.764051553866267,4.984234519970417,1.33012223007977
1638062788333966800,13.510966796875,3.3440181667149065,6.922705505526065,1.0796180677309632
1638062788354112800,13.53111279296875,3.1356711843550205,8.678778773492574,0.9379463282838463
1638062788374259700,13.551259765625,2.6794980266839263,9.142992029756307,0.5113552389279008
1638062788394406000,13.571406005859375,0.5275009025648236,7.993916102656722,0.019654238013457507
1638062788414552800,13.591552734375,-3.0092464061394333,5.664176101016998,0.2535471833065152
1638062788434698800,13.61169873046875,-5.2097980100691315,1.3960346719264984,0.07123802078366279
1638062788454846000,13.631845947265624,-5.556930362784862,-5.688969181489944,-1.9226921094045042
1638062788474991900,13.651991943359375,-4.935244571352005,-12.986284244722127,-5.300571921449899
1638062788495138800,13.672138916015625,-2.5650106467604634,-6.398548360431194,-2.8615561370551585
1638062788515284700,13.69228466796875,-4.780706043808162,1.3206950610429047,1.1386799130305647
1638062788535432000,13.712431884765625,-5.940134730356931,2.7053806559592486,2.7146663706988097
1638062788555577900,13.732577880859376,-4.232215252445638,-0.16367080528736114,3.1152301616117355
1638062788575724800,13.752724853515625,-2.1310297394141555,-3.1164743164539335,4.624914301332831
1638062788595870700,13.77287060546875,1.962417093810439,-8.622619079375266,5.919498769563436
1638062788616018000,13.793017822265625,12.369812388545274,-9.01417100405395,4.560682944440841
1638062788636163600,13.81316357421875,8.750971318522096,3.5737399455368517,3.159277393130958
1638062788656310800,13.833310791015625,-1.0914438223421572,3.7825568834960457,3.3317388231173157
1638062788676457000,13.85345703125,0.023539281019568443,0.9858937821120023,-5.247490319603681
1638062788696603600,13.873603759765626,7.235249944463372,-0.7583610377669334,-7.52809541119635
1638062788716750800,13.893750732421875,8.066479819086194,-0.49407823317348953,-4.807844518363476
1638062788736896800,13.913896728515626,4.824802667427063,-3.640319911381602,-2.252209602713585
1638062788757043700,13.934043701171875,0.7034766242824494,-3.828609025096893,-0.666402008254826
1638062788777189600,13.954189697265624,-1.7620796687744558,2.1502076103538275,-1.0726957941871136
1638062788797336800,13.9743369140625,0.3901426424026489,4.110634407129884,-0.4450219413205981
1638062788817482800,13.994482666015625,1.0666156705558298,4.596762558081746,1.4906129440262912
1638062788837629700,14.014629638671876,0.2187584862589836,3.9799756446063514,0.49239744047969575
1638062788857775900,14.03477587890625,-0.3601497282642871,2.6519775670737027,-0.2293804180383682
1638062788877922800,14.0549228515625,-1.7362790186941623,2.933585600477457,0.34833266841620203
1638062788898069000,14.075069091796875,-2.754731839105487,3.1060148817598816,0.6053230875117704
1638062788918215700,14.095215576171874,-3.333259456813335,2.1731886729687453,0.6300794527035206
1638062788938361900,14.11536181640625,-3.176032420837879,0.12526362548172473,0.23266711155883968
1638062788958508800,14.1355087890625,-1.5549533142507075,-1.237951895904541,-0.8367851706624031
1638062788978651400,14.1556513671875,-1.0358990452527999,-4.114173687171935,-2.8814506318315862
1638062788998798300,14.17579833984375,-1.8190300748780368,-5.8560968492329115,-5.168112246984243
1638062789018944300,14.1959443359375,-1.0163605243071914,-5.392282821419835,-6.2068999994158744
1638062789039091500,14.216091552734374,-0.95192692284137,-6.7447220972478386,-3.7777941991388797
1638062789059237400,14.2362373046875,-2.4810779795765874,-6.4753837628304955,-1.9515753818005321
1638062789079384300,14.25638427734375,-4.242614189124107,-5.736080476754903,-3.1406174085855483
1638062789099530500,14.276530517578125,-4.110564556764066,-5.684614493411779,-4.7789422490060325
1638062789119677200,14.29667724609375,-0.3084757281936705,-2.949956305041909,-4.4896053749158975
1638062789139824400,14.316824462890626,3.878723593831062,-0.5783990228921174,-2.2875556413829323
1638062789159970300,14.33697021484375,4.163769200468063,0.32517303436398504,-0.023871910507418215
1638062789180117200,14.3571171875,3.6411750669062135,-1.1252648434013128,1.7022762113273142
1638062789200263200,14.37726318359375,1.3882926794975996,-4.669570020139217,2.331225564022362
1638062789220410400,14.397410400390624,0.38281756021156904,-9.250704800978303,-0.3948874988421798
1638062789240556500,14.417556640625,2.0038617416158315,-9.384086266463994,0.2193292536179535
1638062789260703200,14.437703125,4.75926110471934,-3.9932752711623904,1.7313263647228478
1638062789280849400,14.457849365234376,3.877082256364822,1.024606082344055,2.0037892609015104
1638062789300996400,14.477996337890625,1.8314298299849032,-0.2877566191613674,0.9991282344773411
1638062789321142500,14.498142578125,2.671268542999029,2.4879601403057574,0.897196384744346
1638062789341289200,14.518289306640625,4.910562550038099,4.307632897001505,0.4500540902689099
1638062789361435400,14.538435302734374,7.34886989390254,5.558018742543458,0.30794746653586624
1638062789381582300,14.558582275390625,8.00188313601315,7.546256506308913,-0.3708896604001522
1638062789401729300,14.578729248046875,4.504477657616138,9.332159095349907,0.6136199738770723
1638062789421875500,14.59887548828125,4.215449703344702,9.876243176186085,1.3148901741564274
1638062789442022400,14.6190224609375,2.6509575763761997,9.699287357389926,1.0131567598298192
1638062789462169300,14.63916943359375,0.13964052588045597,9.018494712471961,0.5481242961376905
1638062789482315300,14.659315185546875,-2.5372815128356216,7.302846978396177,0.5691919263467192
1638062789502462500,14.67946240234375,-6.838438491821289,2.2975018658578397,-0.2892778008466586
1638062789522608400,14.6996083984375,-9.970817648893593,-11.145863299030065,-4.957469262641668
1638062789542755300,14.71975537109375,-7.3530959871649735,-28.174331514990328,-8.816623648127912
1638062789562901200,14.7399013671875,1.4656442147254942,-6.749326960694789,-2.222061424948275
1638062789583048400,14.76004833984375,-3.147386172068119,4.884928927087784,3.0316964306175707
1638062789603194400,14.7801943359375,-4.155283696195483,5.392127923119068,5.671712926262617
1638062789623341300,14.80034130859375,-2.3604425984174013,0.25861937200427054,4.643931721013784
1638062789643487500,14.820487548828124,0.08051613673865794,-3.215135766214132,5.025103121453523
1638062789663634200,14.84063427734375,2.6530422736957666,-13.430103532254694,1.5795885738134383
1638062789683780400,14.8607802734375,12.766743668174742,-9.335092810714244,3.742116444297135
1638062789703927300,14.88092724609375,7.859616937804222,6.32059885931015,2.9204256746530532
1638062789724073500,14.901073486328125,-0.7957914814949035,7.754847818818688,3.892878960433602
1638062789744220200,14.92122021484375,-1.158487606306374,4.124957531514764,-1.433273976996541
1638062789764366300,14.941366455078125,4.83402057762742,1.4961539192795752,-3.8459988435760137
1638062789784513500,14.961513427734374,7.9943597547709935,-1.2657342213213443,-3.6916663599982855
1638062789804659500,14.981659423828125,6.803311064338684,-6.431016797837614,-2.5215987905353305
1638062789824806400,15.001806396484374,2.1877065892733634,-5.382849222642183,-2.472875091637671
1638062789844953300,15.021953369140626,-0.21348251861743628,2.1714964820981026,-0.5900628284072503
1638062789865099500,15.042099609375,0.8026479963261633,5.643621388766169,1.353203538198769
1638062789885246200,15.06224609375,3.188814745521545,3.5663095032751557,0.5250938779557124
1638062789905392400,15.082392333984375,-0.6927589770436287,1.3317974698156119,-0.5071729848071932
1638062789925539300,15.102539306640624,-3.3066882607519625,0.8045850288033485,0.057290177718270566
1638062789945685500,15.122685546875,-0.9871240545593202,1.9622563502907753,0.879145179747045
1638062789965832400,15.14283251953125,-0.4736310729503631,3.325506942990422,0.43496962612271306
1638062789985978600,15.162978515625,-1.9347277073740958,3.484767530620098,0.2003589062154293
1638062790006125600,15.18312548828125,-2.247912197780609,2.35440273373127,0.20969781244695185
1638062790026271500,15.203271484375,-1.8165066938802599,0.032574235868453975,0.44414201668091113
1638062790046418700,15.223418701171875,-1.318225163798034,-0.5001029002904892,-1.241211482222378
1638062790066564600,15.243564697265626,-1.231500820069015,-1.4152443993091584,-3.8547389071315523
1638062790086711600,15.263711669921875,-2.576097857964039,-5.23134114883542,-5.862918804207444
1638062790106857500,15.283857421875,-0.36655747641474007,-5.5771466368615625,-5.689805047792196
1638062790127004700,15.304004638671875,-0.19968466021567582,-5.997396248236298,-2.1590882514238356
1638062790147150600,15.324150634765624,-4.644702413125336,-5.927406181687116,-0.7026486490257084
1638062790167297500,15.344297607421876,-7.306120300978422,-5.8668929685354225,-2.629429342918098
1638062790187443500,15.364443359375,-5.027811795890331,-5.307675031453371,-3.349466495248675
1638062790207590700,15.384590576171876,-0.8461609017729759,-1.462147604781389,-2.6871985180586573
1638062790227737600,15.404737548828125,2.3354805911183356,1.773333614847064,0.08642331495583057
1638062790247883500,15.424883544921874,2.5760101796805857,1.261324003663659,3.1091765606611967
1638062790268030700,15.44503076171875,0.6658452511548996,-3.8402544547051187,4.911111416092515
1638062790288176600,15.4651767578125,1.1858662462931127,-8.8642265263021,2.432163434281945
1638062790308323600,15.485323486328125,4.5937136919051405,-8.519894033437966,-2.576877025642991
1638062790328469500,15.505469482421875,0.24744594382196664,-5.627731161195039,-0.7177168926894665
1638062790348616700,15.52561669921875,1.3957386115893722,-2.7581016077995297,0.6768427382484078
1638062790368762400,15.545762451171875,3.1501284565135834,-1.2018448097348213,1.5893629488527774
1638062790388909600,15.56590966796875,2.3310829406812785,-0.2558762107759714,1.068461882944405
1638062790409055500,15.586055419921875,2.2186545391142367,1.0627835450470446,-0.773533472457528
1638062790429202400,15.606202392578124,4.636354271496832,2.8011469687998294,-0.5436386386236176
1638062790449348600,15.6263486328125,6.074103640341758,4.704084284159541,-0.2600978835916147
1638062790469495600,15.64649560546875,6.783669375279545,6.65699062230289,0.2898036148190498
1638062790489641700,15.666641845703126,5.6207946399301285,7.100622278308868,0.08770107980668544
1638062790509788400,15.686788330078125,4.131208408603072,7.787227993419766,0.8926946894109249
1638062790529934600,15.7069345703125,3.7456840736508368,8.124327027899026,1.5622747431799768
1638062790550081500,15.72708154296875,3.1349437468633052,7.792790303722024,1.0971899647787213
1638062790570227700,15.747227783203124,1.5370426867678761,7.510740956291556,0.7882102325856685
1638062790590374400,15.76737451171875,-1.1621698019504547,6.327747562021017,0.7746811081226914
1638062790610521600,15.787521484375,-6.518012944245338,2.1876976753145456,-0.12185535140819846
1638062790630667800,15.807667724609376,-13.616916728198527,-11.35320373469591,-6.431270480337739
1638062790650814500,15.827814453125,-5.510305389732122,-24.663686031270025,-10.752658930969238
1638062790670960600,15.847960693359376,2.821446244984865,-2.3000059576332568,-0.23616057969778775
1638062790691107600,15.868107666015625,-2.2062325721755625,6.927841699370742,5.696508929345011
1638062790711253800,15.888253662109374,-3.7169314418971537,5.845435169965028,7.346843941032886
1638062790731400400,15.908400390625,-2.3609900031670925,-0.49772915689647196,4.225606063438952
1638062790751546600,15.928546630859374,-1.7713322118967771,-7.572604415008425,1.8081022920198737
1638062790771693600,15.948693603515625,0.28236908090412616,-20.823169126236436,-1.37029466599226
1638062790791839500,15.968839599609375,11.331838290584086,-4.993779177907109,2.1287783072255553
1638062790811986700,15.988986572265626,9.180428903225064,10.25225441738367,5.128379956054687
1638062790832132600,16.009132568359377,1.2502987517803907,7.1624845679819575,7.732745292603969
1638062790852279600,16.029279541015626,-0.5351520018398761,2.353523612809181,4.4836584492102265
1638062790872425500,16.049425537109375,3.12510624345988,-1.7256389667361973,-1.8698748575828967
1638062790892572700,16.06957275390625,5.145997445809841,-3.7031834870517253,-2.78649621989578
1638062790912718600,16.089718505859373,4.337243606889247,-3.2146424297392366,-0.8910434150725602
1638062790932865500,16.109865478515626,2.359215686970949,-1.897182697355747,-0.10157733720690011
1638062790953011500,16.130011474609375,1.368534086060524,1.639817709326744,-0.5369739565700292
1638062790973157600,16.15015771484375,2.0182208140969276,3.5256384701907635,-0.9449319493874907
1638062790993303800,16.1703037109375,2.7363936338603496,2.6361498833447694,-0.8103042832329869
1638062791013450500,16.190450439453127,1.6108768615245819,0.5322369911760092,-1.1784889955233782
1638062791033596700,16.2105966796875,0.7013092901807279,1.23634972140491,-0.849062760694325
1638062791053743900,16.230743896484373,-1.1983468846164642,2.504713706707954,0.6886432853531091
1638062791073890600,16.250890625,-2.4481179592609403,3.2893349748909473,1.5631594170600176
1638062791094036700,16.27103662109375,-2.247885163643211,2.8882535898447035,0.7448714415967465
1638062791114183700,16.29118359375,-2.4753835673272606,1.97239312890172,0.0092129417642951
1638062791134329900,16.311329833984374,-1.362960231450945,1.0294815794259309,-0.2778229619070887
1638062791154476500,16.3314765625,-0.9648810969606041,-0.144689041441679,-1.9118918984487652
1638062791174622700,16.351622802734376,-2.0527584589928387,-1.5263567498415707,-4.010513990733028
1638062791194770000,16.37177001953125,-3.5688591877579685,-3.948302741491794,-4.415619224467873
1638062791214915800,16.391915771484374,-2.0413257953524586,-5.103865108001232,-3.3998096120417114
1638062791235062800,16.412062744140623,-0.5897986610457301,-4.4968286041677,-1.5159993142172694
1638062791255208700,16.432208740234376,-4.109165211360156,-5.289369559434056,-1.6610092581763862
1638062791275356000,16.45235595703125,-6.680372082412243,-4.824212884840369,-3.8687487277835606
1638062791295501800,16.472501708984375,-6.462008732950687,-4.532454044300318,-5.199890948560833
1638062791315648800,16.492648681640624,-2.4381191278159617,-1.8150129481911659,-3.700186058801412
1638062791335794700,16.512794677734377,2.4699159495711327,0.6738672295689583,-0.13887246411740778
1638062791355942000,16.53294189453125,4.339350223779678,0.5500497112423182,3.2981820059522984
1638062791376087600,16.553087646484375,2.0067115780889986,-4.68170586361289,4.8776396468624466
1638062791396234800,16.57323486328125,0.5040495920896529,-9.340367536246776,2.5565099449187514
1638062791416380700,16.593380615234373,3.507934471195936,-9.641103463968633,-2.7109806679233905
1638062791436527600,16.613527587890626,1.9125532849669455,-5.652372850498557,-1.7141706472605467
1638062791456673800,16.633673828125,2.6180031090185043,-1.4056126476109028,0.8884404660325497
1638062791476820700,16.65382080078125,2.2523785295397043,-0.8748720324724912,1.25708855805099
1638062791496967000,16.673966796875,2.7495605739474294,-1.8659166214764118,0.24162498258352277
1638062791517113600,16.694113525390627,2.003987706083059,-1.0324947897672652,-0.21789134803563356
1638062791537259800,16.714259765625,4.696090947318077,1.5877321327805518,0.46031040360629555
1638062791557406700,16.73440673828125,6.018191198983788,4.00392584451437,0.6919000221267342
1638062791577553700,16.7545537109375,5.105636793848872,5.91674917859435,0.7935121383860707
1638062791597699600,16.774699462890624,3.961789415052533,6.965865432816743,0.7684593840636312
1638062791617846800,16.7948466796875,4.246217182052135,7.475496624431013,1.398599553978443
1638062791637993000,16.814992919921874,4.737557222433388,6.500880607658624,2.040133370697498
1638062791658139600,16.8351396484375,4.047469510425627,6.552171818956732,2.132696211321652
1638062791678285800,16.855285888671876,2.266363215750456,6.961966671812534,2.084572524143755
1638062791698432800,16.875432861328125,-0.23178134170025586,6.564131721341609,1.6408666338577866
1638062791718578700,16.89557861328125,-3.756032449185848,3.7525107048004864,0.6061670275226235
1638062791738725600,16.9157255859375,-9.036590341132879,-1.5439058505356311,-2.1323883144162594
1638062791758871800,16.935871826171876,-11.75240997352004,-15.797426537835596,-7.644577764329314
1638062791779018800,16.956018798828126,-2.3736109998092054,-16.926421215415,-9.453761275714635
1638062791799164700,16.97616455078125,-0.30217823548465966,0.39758302153646946,1.2514372542910277
1638062791819311900,16.996311767578124,-3.366310078021884,4.2134383635222905,4.810673604309558
1638062791839457800,17.016457763671873,-2.182566157644987,-0.07442074247300624,5.952898350340128
1638062791859604700,17.036604736328126,-2.903964076934755,-6.4780708099573845,3.64437064807713
1638062791879750700,17.056750732421875,0.274845991922915,-17.096774274945258,-1.2518268381305038
1638062791899897900,17.07689794921875,11.987720950651168,3.343571007469296,2.0243257068432867
1638062791920043800,17.097043701171874,7.405083364033699,8.059440421968699,6.04806552824378
1638062791940190700,17.117190673828127,1.7789692826464771,5.515760732528567,7.725095654633641
1638062791960336600,17.137336669921876,0.5964052197039127,1.357049399971962,1.1570207486242055
1638062791980484400,17.157484375,2.831077119900286,-1.896903295892477,-2.5146277824789283
1638062792000630000,17.177630126953126,4.62309789956063,-4.196443974101543,-3.0157372294634577
1638062792020777200,17.197777099609375,3.549860472777486,-3.196627465099096,-0.8826031381811946
1638062792040923400,17.21792333984375,1.8289244230352342,-0.8110112624585628,-0.7616204779542982
1638062792061070000,17.238070068359374,1.760600974524021,3.899703253495693,-0.17085304494164882
1638062792081216300,17.25821630859375,2.716412337583303,5.1030111215203995,0.24568083384558556
1638062792101363200,17.27836328125,4.212404928821325,2.3412813863515853,-0.4915206576451659
1638062792121509400,17.29850927734375,2.640983294850588,-1.1267501135230065,-2.0057886180251834
1638062792141656000,17.318656005859374,-1.2519582094252109,-0.8844856639921664,-1.8590952510237693
1638062792161802200,17.33880224609375,-2.822135980814695,1.7860259231597184,-0.11115757791362703
1638062792181949200,17.35894921875,-2.7539503333389757,3.2645559229433534,1.6893050860732792
1638062792202095400,17.379095458984374,-1.4031285757102072,2.9699294180124998,1.2200582195565104
1638062792222242300,17.3992421875,-0.9770835759297013,1.6900655490517615,0.5451470338925719
1638062792242388200,17.41938818359375,-0.9973416433215141,-0.08970540536642074,0.42086423614174123
1638062792262535400,17.439535400390625,-2.6797458639651537,-0.27208675634264945,-1.7363155513122677
1638062792282681300,17.459681396484374,-3.113081459145248,-2.0427321550190447,-5.163718395939469
1638062792302828300,17.479828369140623,-3.138946552763879,-4.403303932774067,-5.19211914551556
1638062792322974200,17.49997412109375,0.5633075444832444,-3.941542161315679,-3.6378815783187743
1638062792343121400,17.520121337890625,-0.04665799853950739,-4.122152995488047,-1.4824842903673647
1638062792363267000,17.54026708984375,-3.468140513207018,-4.709620875498652,-1.6904571787178515
1638062792383414300,17.560414306640624,-5.646148276895285,-5.112478622567654,-3.288809197451174
1638062792403560200,17.580560302734376,-3.7888404938101767,-3.5395699649095533,-3.3838989262044428
1638062792423707100,17.60070703125,-3.1073353167086837,-1.7490777099907397,-1.9359746386952696
1638062792443853000,17.62085302734375,-1.0747370176911353,-0.8960323094010353,-0.28585663075894113
1638062792464000300,17.641000244140624,2.7112697139978406,0.7300462129086256,1.645987045611441
1638062792484146400,17.661146484375,3.181496531462669,0.6975111400067806,3.9445848900124427
1638062792504293000,17.681293212890626,1.164116259843111,-2.5945751794189214,6.546661531102657
1638062792524439300,17.701439208984375,1.298273385876417,-7.287097036078572,3.7961943637043234
1638062792544586200,17.721586181640625,2.0839754350334405,-9.804511818927526,0.012997721000015734
1638062792564732400,17.741732421875,1.1996809096992016,-6.263888545572757,1.76710231924206
1638062792584879000,17.761879150390627,5.548991386479139,-1.0249725775688887,4.741850827974081
1638062792605025300,17.782025390625,0.19684943678975103,0.7025836209654808,2.826755165047943
1638062792625172200,17.802172119140625,0.5892550556883216,0.3480143962472677,0.66242199870795
1638062792645318100,17.822318115234374,2.0016019799903035,1.3617577237933873,0.4120251326585188
1638062792665465300,17.84246533203125,4.272903236664831,1.9481284562170504,0.17912879718737676
1638062792685611300,17.862611328125,4.747399109750986,2.4255519071877,-0.4553615490272641
1638062792705758200,17.88275830078125,3.7067490705788133,4.122941515517234,-0.39766134746968745
1638062792725904100,17.902904052734375,4.097826363483071,5.083685074281692,-0.37459640596359967
1638062792746051300,17.92305126953125,3.9580654260933397,5.600384889107942,-0.015808394506573675
1638062792766197200,17.943197265625,3.043276978296041,5.86333556831479,0.41169191864877935
1638062792786344200,17.96334423828125,1.693968401709199,5.31625581279397,0.13361001354455948
1638062792806490000,17.983489990234375,-1.3337351598799227,4.879953476762771,0.19860797089487314
1638062792826637300,18.00363720703125,-5.175164503583312,3.9492052432894704,0.7888263186573982
1638062792846783200,18.023783203125,-6.101382107889652,0.9542273087382316,1.6077385634988546
1638062792866930200,18.04393017578125,-4.748350126865506,-5.563717830967903,-0.31946167097985745
1638062792887076000,18.064076171875,-2.448205053022504,-7.580556835317611,-2.241761858457327
1638062792907223300,18.084223388671877,-1.2635910718128085,-2.2933897543638944,-0.20430939740687606
1638062792927369500,18.104369384765626,-4.9034360591590405,-0.6264028830826283,1.7696563876390456
1638062792947516200,18.12451611328125,-6.145013159823417,-2.034170078378916,2.467694181868434
1638062792967662300,18.144662353515624,-5.475230569219589,-6.855681887567043,0.027623061468172817
1638062792987808800,18.164808837890625,1.3411048118650912,-7.77444508421421,-1.7044044555276632
1638062793007955000,18.184954833984374,8.774194957721233,0.04034136273860931,2.169102864959836
1638062793028101600,18.2051015625,7.421665665522218,4.325924925017357,4.280760964427889
1638062793048247800,18.225247802734376,3.3255618880480524,3.6559272303581234,3.93741952842772
1638062793068394800,18.245394775390626,2.6995819065526128,2.25688110165596,-0.6739843531426042
1638062793088540700,18.265540771484375,5.240575425648689,-0.16894260821044443,-4.177625584124028
1638062793108687600,18.2856875,3.8782223663106556,-0.8530681969434022,-3.684615272442996
1638062793128833800,18.305833740234377,2.4159748082861303,-0.8648352071046829,-1.8782780903995036
1638062793148980700,18.325980712890626,2.0383011868342757,-0.1342494804918766,-1.3476882819086313
1638062793169126700,18.346126708984375,0.9729415076889097,0.8330296175211668,-1.3363216692417859
1638062793189273900,18.36627392578125,1.1347938653774559,1.8930676632523535,-1.312649117231369
1638062793209419800,18.386419677734374,1.0476889978982507,1.8997855733305216,-1.1617279034018515
1638062793229566700,18.406566650390626,-0.07377484578490257,2.0220237135112282,-1.1745084745198489
1638062793249712600,18.426712646484376,-0.7046276940137147,0.9774363348901272,-1.3012977021336554
1638062793269859800,18.44685986328125,-0.8282523201167583,0.3320879283189773,-0.6226040753215552
1638062793290005800,18.467005859375,-1.1049848564386366,1.392482532402873,-0.30950843224227426
1638062793310152700,18.487152587890623,-1.5611809565939008,1.3475199396044015,-0.22535746439890936
1638062793330298600,18.507298583984376,-0.8838857984028756,1.6625573644012213,-0.6970853158101439
1638062793350445800,18.52744580078125,-0.342317207518965,2.004476950904727,-0.7637447766318917
1638062793370591700,18.547591796875,-0.28463527227044105,1.096584107840061,-0.6170934952065348
1638062793390737700,18.567737548828124,-1.3526948580242693,0.5434785161584615,-1.0220801440630107
1638062793410884900,18.587884765625,-1.8639694329313932,0.05997311492562293,-2.2937252699285744
1638062793431031800,18.60803173828125,-1.7381085722088814,-1.9552035091698168,-3.8980741909891363
1638062793451177700,18.628177734375,-1.6559455450460314,-5.257049590587616,-4.419396404919028
1638062793471323600,18.64832373046875,-1.6751321838140487,-4.883915366131067,-3.4128605245336887
1638062793491470800,18.668470947265625,-2.2232855599157513,-5.303372950345278,-1.205324614674598
1638062793511616800,18.68861669921875,-3.22025033274889,-5.416558015498518,-2.1763810392692684
1638062793531763700,18.708763671875,-4.798293430685996,-3.9078199244558807,-4.5448599368870255
1638062793551909600,18.72890966796875,-4.904233347016572,-1.9835446375131607,-4.547875777576864
1638062793572056800,18.749056884765626,0.3650597852028906,0.4555331062018871,-2.327252860999107
1638062793592202800,18.76920263671875,4.251078066086769,1.0511351928293704,0.8250451215732842
1638062793612349700,18.789349609375,2.0973025341182945,-0.8096078254014253,3.622525896015763
1638062793632495600,18.80949560546875,-1.44976275498271,-7.456589094865322,5.58897502182126
1638062793652642800,18.829642822265626,4.045140482956171,-8.009401256558299,0.7968409905478357
1638062793672788700,18.849788818359375,2.3333377338707444,-8.600780172532795,-1.1452040541023016
1638062793692935700,18.869935791015624,0.6588819880135357,-5.598899034464359,1.4146815047293901
1638062793713081900,18.890081787109374,4.535371685312688,-1.1003531049847601,3.2204432249724864
1638062793733228800,18.910228759765626,2.564053199905157,-0.45800095762014387,1.2426678185105322
1638062793753374700,18.930374755859376,1.8203735984414815,-1.0142413401961325,-0.3448516213674098
1638062793773521700,18.950521728515625,2.5583678477451204,0.8213479475557803,-0.811824040146172
1638062793793667800,18.970667724609374,5.143274742847681,3.1512188820987936,0.1898443072680384
1638062793813814500,18.990814453125,6.020684184843302,4.612164709874987,0.31664288723208006
1638062793833960700,19.010960693359376,4.508359467485547,6.384198348039388,0.4571311890482902
1638062793854108000,19.03110791015625,4.8922278519243,7.513136911517381,1.1675842282146214
1638062793874253800,19.05125390625,4.29756976814866,7.764144639474153,1.8124980427607893
1638062793894400800,19.07140087890625,3.858538299414515,7.312025725629925,2.2216817779809235
1638062793914546700,19.091546630859376,3.137188018658757,6.476544623303413,1.3326950031772256
1638062793934694000,19.11169384765625,0.8825158252239227,6.135320033326745,1.0995452957332135
1638062793954839800,19.13183984375,-2.469626026713848,4.8851206502676,0.9215233090102672
1638062793974987000,19.151987060546876,-8.024341051536798,1.4435551325142382,0.8491992465555668
1638062793995133000,19.1721328125,-12.298021410053968,-10.091842906153202,-4.79425058503598
1638062794015280000,19.192280029296874,-6.942554699856043,-19.50855835354328,-9.88371102784872
1638062794035425800,19.21242578125,2.531269705200195,-4.8252884051173925,-3.268984845301509
1638062794055572000,19.232572021484376,-0.8772317473411559,5.236890599656105,3.047641018724441
1638062794075719000,19.252718994140626,-3.011885814732313,6.632485126599669,4.013943088398873
1638062794095865000,19.272864990234375,-2.2348545632869006,0.05057108033001423,4.19390393422991
1638062794116012000,19.293011962890624,-1.3009841061398386,-3.637763212636113,2.104774769695103
1638062794136158000,19.313157958984377,-1.9238941786706447,-10.631211648905277,-1.2854729410141705
1638062794156305200,19.33330517578125,4.173805733574927,-12.970809612214564,-1.304097854246199
1638062794176451000,19.353451171875,9.833341607570647,4.253796677395701,3.961594769263267
1638062794196598000,19.373597900390624,6.234928993070125,8.209565516984462,6.730998692321777
1638062794216744000,19.393743896484374,1.7839166759207843,4.110194262146949,4.721888236397504
1638062794236891100,19.41389111328125,1.8830396057128904,0.8050619986653328,-1.5348858009949327
1638062794257036800,19.434036865234376,5.481777214384079,-4.246909255969524,-6.220769534814357
1638062794277184000,19.45418408203125,5.415654929178952,-3.2482273039549585,-3.35746830765754
1638062794297330000,19.474329833984374,3.2880598403885957,-2.039786164695024,0.3467010486263782
1638062794317476900,19.494476806640623,1.201967413201183,0.588802928006649,1.1969820990692823
1638062794337622800,19.514622802734376,0.6584305909842252,4.0214568250298495,1.3796443858787417
1638062794357770000,19.53477001953125,1.9599135865569113,4.286503015211224,0.7699494764909148
1638062794377916200,19.554916259765626,1.347789404195547,2.0855571512669324,-0.8013069569807499
1638062794398062000,19.57506201171875,1.7813316278636455,-0.9312491687327623,-2.3336785101324318
1638062794418209000,19.595208984375,-0.2520014334355481,-0.08811024512946605,-1.9952146170407532
1638062794438355000,19.61535498046875,-3.38588045541048,1.87897484049201,-1.006735786871612
1638062794458502100,19.635502197265627,-3.410885132807493,2.3926281272292136,-0.1481271991968155
1638062794478648000,19.65564794921875,-2.8901427645921705,1.6548416754573583,-0.7032534830510616
1638062794498795000,19.675794921875,-2.420685324064642,2.1285341232061383,-0.9972674090415239
1638062794518941000,19.69594091796875,-1.3408080208756028,2.038819365489483,-0.5477961236292496
1638062794539088100,19.716088134765624,-1.0457271963059902,0.02214461179077625,-0.17150193730443716
1638062794559233800,19.73623388671875,-1.9613138087436555,-1.24711076939404,-1.2692659025788307
1638062794579381000,19.756381103515626,-1.8305894336380064,-0.8891519022375345,-3.8732437011152503
1638062794599527000,19.77652685546875,-0.9704933838844298,-3.155063867089152,-4.909841250026226
1638062794619673900,19.796673828125,1.7125404157102107,-3.658672145152092,-3.9467899988412856
1638062794639820000,19.816820068359377,0.05717091698646545,-3.288410261261463,-0.23447277274131773
1638062794659967000,19.836967041015626,-3.421653779581189,-4.101444553980231,0.9651933777801692
1638062794680113200,19.857113037109375,-4.828607028146088,-4.328237293612957,-1.205076119806245
1638062794700259800,19.877259765625,-3.3286958021596074,-5.509049836713075,-5.758001801183819
1638062794720406000,19.897406005859374,-3.265216432678699,-4.516327085363865,-6.047606678560376
1638062794740552000,19.917552001953126,-0.8745067062914371,-2.124324981078505,-4.760805119290947
1638062794760699100,19.93769921875,1.7841667051590977,-0.39381227082610126,-2.589620479620993
1638062794780844800,19.9578447265625,2.3111422686755656,0.9894511823326348,0.6748498108655214
1638062794800992000,19.977991943359374,1.2872259221613407,-1.1503420015126467,3.3774636324599383
1638062794821138000,19.998137939453127,0.1307423491537571,-5.871941484096646,5.049090146240592
1638062794841284900,20.018284912109376,0.9608143589783459,-7.470218976289034,2.1628128249049183
1638062794861430800,20.0384306640625,3.4596453643232583,-5.059959330779313,-0.6937880278304219
1638062794881578000,20.058577880859374,1.9223042791306972,-1.9655203205227851,0.41853520867228505
1638062794901724200,20.07872412109375,3.175356713533401,0.3903127382725477,1.1591676975250242
1638062794921870800,20.098870849609376,-0.9887669994607567,-0.42774493556618687,0.23627249737335368
1638062794942017000,20.11901708984375,1.5000442047163842,0.07607961559593678,-0.13738776025129482
1638062794962164000,20.1391640625,4.440183172360062,1.2078420043230056,-0.7986459941431879
1638062794982310000,20.159309814453124,6.254737270867825,2.1884587228149175,-1.0225894818246364
1638062795002455800,20.179455810546877,6.408074898189306,3.754681619098782,-1.390634274187684
1638062795022602800,20.199602783203126,5.941155305576324,5.973418575799465,-0.8157251392379402
1638062795042748700,20.219748779296875,4.416746767193079,7.434129425776004,0.18110650873482226
1638062795062895900,20.239895751953124,3.7517660239130257,8.123617418324947,1.1427847180008888
1638062795083041800,20.260041748046874,2.647511819836497,8.036621271917223,1.3252169223815202
1638062795103188700,20.280188720703126,1.2318465647667645,7.831598465543985,1.0683064001217484
1638062795123334700,20.300334716796876,-1.702123651114106,6.822125654923916,0.7945753837034106
1638062795289568500,20.466568603515626,4.836919221678376,7.1833993457168335,0.937799613289535
1638062795309714400,20.48671435546875,5.391175152438879,7.405040109413862,1.4951906272053717
1638062795329860400,20.5068603515625,4.475536809813976,7.227851066383719,1.2560270662993192
1638062795350006300,20.52700634765625,3.4060072976380584,7.323887428337335,0.5078089446231723
1638062795370153500,20.547153564453126,1.4929288197532296,7.580153515213728,0.1287850867392961
1638062795390299600,20.567299560546875,-1.4537091545209289,5.914397647032142,1.2968152960225938
1638062795410445600,20.587445556640624,-5.680233501848578,2.602362180033326,0.6485933798417448
1638062795430591200,20.60759130859375,-10.16758291453123,-6.620027796086669,-1.9019018348321317
1638062795450737400,20.6277373046875,-9.395145420616865,-20.610753871524334,-6.44010786678791
1638062795470883300,20.64788330078125,-1.5747089850783347,-5.101189751312137,-2.2445593802213666
1638062795491029500,20.668029541015624,-4.6270875537186855,6.391352895969152,4.776617605450749
1638062795511175400,20.688175537109377,-4.567164707675576,1.579814783784747,4.770783200208842
1638062795531321600,20.708321533203126,-3.6304268783986564,-2.702987038820982,3.8786233483269807
1638062816000646400,41.177646484375,-0.21937106519937513,1.0534621744722128,-0.5591429721496999
1638062816020792300,41.19779223632813,0.22716040390133857,0.6557485122933984,-0.29389417206831275
1638062816040937200,41.217937255859376,0.334043154039979,-0.44381987205445766,-0.30726511029489334
1638062816061082000,41.23808203125,0.41779286587238307,-0.39501989305019375,-0.15743556415960192
1638062816081228300,41.25822827148438,-0.22395371681451795,-0.5264090156748891,-0.30368031061068174
1638062816101373200,41.278373291015626,-0.5663280613481998,-0.5974281330108642,-0.035922377252578734
1638062816121519400,41.29851928710937,-0.20780688413381576,-0.4851134209513664,0.07125117252618074
1638062816141664300,41.31866430664063,0.1898714144706726,-0.07272679803669452,0.10313479578197002
1638062816161809200,41.33880908203125,0.7213818449378013,0.26064795522242784,0.08675609057415276
1638062816181955300,41.35895532226562,1.3448510126560926,0.28250059832930563,-0.026904081277549265
1638062816202100200,41.37910034179688,1.8175240542292594,-0.044853287205100054,0.028845424603670834
1638062816222246100,41.39924609375,1.6390180833816528,-0.5095861834287643,0.37919440127834675
1638062816242391300,41.41939135742187,2.2610031500220296,0.09347031085789204,-0.3882010068155825
1638062816262536200,41.4395361328125,-0.12490648260712622,-0.37244565767049786,-0.6926150385282933
1638062816282682000,41.45968212890625,-0.040705519875884055,-0.43570553918182847,-0.6568141687635332
1638062816302827300,41.4798271484375,-0.36677754890620706,-0.11624912889897823,-0.7595626686416566
1638062816322973200,41.49997314453125,-0.0008773673564195632,-0.11524345898777245,-0.7678453438185155
1638062816343118000,41.5201181640625,0.11722411141097545,-0.3085533234745264,-0.5957777354553342
1638062816363263200,41.54026318359375,0.5454220514416694,-0.48201983885020017,-0.1511348565801978
1638062816383409200,41.5604091796875,1.1126619669377804,-0.753716134570539,-0.17728410090245306
1638062816403554300,41.58055419921875,1.4039566970974207,-0.9656783848181366,-0.3055028498627245
1638062816423700200,41.6007001953125,1.2462959458798168,-1.0116197595208882,-0.4307596802774816
1638062816443845400,41.62084545898438,0.852602332997322,-1.4032634541362523,-0.3802911104738712
1638062816463991000,41.64099096679688,0.9041162471354007,-1.4278691953435538,-0.4293876612719148
1638062816484136400,41.66113647460938,0.6816629980117083,-0.945328547489643,-0.37972032484859225
1638062816504281300,41.68128125,0.074462243527174,-1.0337675861820579,-0.08023943868912756
1638062816524427300,41.70142724609375,0.24650690940618514,-0.9703674194172024,0.07997881499156355
1638062816544572400,41.72157250976562,0.03920212957561016,-0.6386342958852649,0.018490107871219515
1638062816564718300,41.74171826171875,0.1944762779176235,-0.5026683668643236,0.41763942887634037
1638062816584863200,41.76186328125,0.07566285148859024,-0.5770704046368599,0.3366108125708997
1638062816605008100,41.78200805664063,0.041158524340391155,-0.5298977345734834,0.5578523478172719
1638062816625154300,41.802154296875,0.13993395586907864,-0.000576046322286129,0.7743683889117091
1638062816645299200,41.82229931640625,-0.5010743756711483,-0.3649839434877038,0.974561802367121
1638062816665445400,41.8424453125,-2.1376696158200503,-1.2139034963190556,1.304317634476721
1638062816685590300,41.86259033203125,-0.4949807349711656,-2.5499247213095426,0.7824523997113109
1638062816705736200,41.882736083984376,0.0050958618342876435,-2.0691972603574396,-0.1340085113428533
1638062816725881300,41.90288134765625,-0.6011322482258081,-0.4964157362103462,-0.7460254339374601
1638062816746027300,41.92302734375,-0.5038397487312555,0.6169231070756912,-0.7337101422436535
1638062816766172200,41.94317211914063,0.371207055786252,-0.2463920508548617,-0.039424229627382006
1638062816786318300,41.963318359375,0.15879413916170595,-1.2581634938061237,0.4777583820134401
1638062816806463200,41.98346313476563,0.2837351085603237,-1.3372031282514334,0.37517829750478265
1638062816826608000,42.00360815429688,0.35953532269299027,-1.04242640119493,0.2435173722013831
1638062816846754300,42.02375439453125,-0.3499240292608738,-0.6406155328303575,0.24493702974095938
1638062816866899200,42.04389916992187,-0.9231827666550874,-0.590427314338088,0.11815963869541883
1638062816887045000,42.064045166015624,-1.5712480309695005,0.3982517145782709,-0.18742256001383065
1638062816907190300,42.08419018554687,-1.4199293422549961,1.1535738230407238,-0.5263455950498581
1638062816927336200,42.104336181640626,-1.1324714137792586,1.203365151169896,-0.45020358174219727
1638062816947481000,42.124481201171875,-0.6945932067334651,1.0317065619990229,-0.2593662448488176
1638062816967627300,42.14462719726563,0.07235621115863322,0.7807578707531094,-0.2904666087724268
1638062816987772200,42.16477221679688,0.14823475122451782,0.715136520807445,-0.40782822895795107
1638062817007914500,42.18491455078125,0.12785481101870536,0.7246586746513843,-0.5952738775864244
1638062817028059400,42.20505932617188,0.023936171382665634,0.7800923925817013,-0.7756757451832293
1638062817048205600,42.22520556640625,-0.18512451220452783,0.862818898846209,-0.6118231535881757
1638062817068350500,42.2453505859375,-0.46583588902950285,0.6861340059459209,-0.1753226646363735
1638062817088496600,42.26549658203125,-0.43134208327531814,0.7166992400795221,0.06036489072218537
1638062817108641500,42.2856416015625,-0.3337053003877401,0.6040794075936079,0.0952603726124391
1638062817128787500,42.305787353515626,-0.15712065299153327,0.34340310305953026,0.26350568274110553
1638062817148932400,42.325932373046875,0.012917933762073517,0.21563655484616756,0.5191268958427012
1638062817169078500,42.34607861328125,0.048830958664417265,0.1792225946843624,0.5519220809854567
1638062817189223400,42.36622338867188,0.1613029071122408,0.17798340827822684,0.4072350853703916
1638062817209369600,42.38636962890625,0.2916717467784881,0.09436872100234031,0.3253321704484522
1638062817229514500,42.40651440429688,0.2009030960947275,0.27060879274457694,0.27496154459398237
1638062817249660400,42.426660400390624,0.07866378687024116,0.3688771515339613,0.10860431323423982
1638062817269805600,42.4468056640625,0.14442016137242317,0.21687749481797217,0.010850918229669331
1638062817289951500,42.466951416015625,0.2212935576945543,0.23815672195106743,0.06969426194038242
1638062817310097400,42.48709741210938,0.08676409121751785,0.28274288265258074,0.13816241615191102
1638062817330242600,42.50724267578125,0.056989130678772926,0.2922904631987214,-0.06901453604791313
1638062817350388500,42.52738842773437,0.4672843342721462,0.38752076946645975,-0.27364483597222716
1638062817370533400,42.54753344726562,0.14174538920521734,0.3536716913565993,0.09504369765445589
1638062817390679600,42.567679443359374,0.37603754468262196,-0.1796153933942318,0.05905161616653204
1638062817410824400,42.58782446289062,0.3351858943343162,-0.2869371194720268,-0.17112725877314805
1638062817430970600,42.607970703125,0.5142863239437342,-0.06696691933572292,-0.3988032109811902
